Project Name : Project Name
Sample Name : Sample Name
Measurement No : 1
Measurement Time : 10/13/2021   10:46:20

Pixel   Wavelength(nm)    Intensity
   1         284.37        34
   2         284.73        40
   3         285.08        40
   4         285.44        47
   5         285.80        36
   6         286.15        34
   7         286.51        38
   8         286.86        39
   9         287.22        40
  10         287.58        41
  11         287.93        39
  12         288.29        41
  13         288.64        38
  14         289.00        39
  15         289.36        34
  16         289.71        41
  17         290.07        43
  18         290.43        32
  19         290.78        37
  20         291.14        37
  21         291.50        44
  22         291.85        40
  23         292.21        37
  24         292.57        39
  25         292.93        37
  26         293.28        40
  27         293.64        40
  28         294.00        42
  29         294.35        37
  30         294.71        47
  31         295.07        38
  32         295.43        40
  33         295.78        33
  34         296.14        35
  35         296.50        39
  36         296.86        34
  37         297.22        36
  38         297.57        38
  39         297.93        41
  40         298.29        41
  41         298.65        33
  42         299.01        35
  43         299.36        30
  44         299.72        32
  45         300.08        37
  46         300.44        43
  47         300.80        34
  48         301.16        35
  49         301.51        39
  50         301.87        35
  51         302.23        35
  52         302.59        38
  53         302.95        36
  54         303.31        36
  55         303.67        29
  56         304.03        39
  57         304.39        37
  58         304.74        29
  59         305.10        37
  60         305.46        35
  61         305.82        33
  62         306.18        39
  63         306.54        35
  64         306.90        29
  65         307.26        38
  66         307.62        31
  67         307.98        38
  68         308.34        36
  69         308.70        40
  70         309.06        35
  71         309.42        31
  72         309.78        32
  73         310.14        35
  74         310.50        37
  75         310.86        35
  76         311.22        33
  77         311.58        38
  78         311.94        39
  79         312.30        36
  80         312.66        44
  81         313.02        37
  82         313.38        37
  83         313.74        34
  84         314.11        32
  85         314.47        38
  86         314.83        53
  87         315.19        39
  88         315.55        33
  89         315.91        37
  90         316.27        36
  91         316.63        42
  92         316.99        39
  93         317.36        33
  94         317.72        39
  95         318.08        36
  96         318.44        38
  97         318.80        44
  98         319.16        37
  99         319.52        35
 100         319.89        36
 101         320.25        36
 102         320.61        41
 103         320.97        35
 104         321.33        38
 105         321.70        41
 106         322.06        42
 107         322.42        40
 108         322.78        44
 109         323.14        45
 110         323.51        37
 111         323.87        39
 112         324.23        35
 113         324.59        40
 114         324.96        39
 115         325.32        45
 116         325.68        46
 117         326.05        41
 118         326.41        41
 119         326.77        45
 120         327.13        43
 121         327.50        39
 122         327.86        42
 123         328.22        35
 124         328.59        42
 125         328.95        45
 126         329.31        43
 127         329.68        41
 128         330.04        43
 129         330.40        44
 130         330.77        43
 131         331.13        43
 132         331.49        42
 133         331.86        43
 134         332.22        42
 135         332.59        45
 136         332.95        40
 137         333.31        40
 138         333.68        44
 139         334.04        38
 140         334.41        48
 141         334.77        43
 142         335.14        43
 143         335.50        43
 144         335.86        42
 145         336.23        44
 146         336.59        47
 147         336.96        41
 148         337.32        43
 149         337.69        48
 150         338.05        44
 151         338.42        50
 152         338.78        45
 153         339.15        45
 154         339.51        38
 155         339.88        45
 156         340.24        43
 157         340.61        45
 158         340.97        39
 159         341.34        45
 160         341.70        40
 161         342.07        41
 162         342.43        42
 163         342.80        41
 164         343.17        42
 165         343.53        40
 166         343.90        42
 167         344.26        45
 168         344.63        37
 169         344.99        45
 170         345.36        41
 171         345.73        46
 172         346.09        41
 173         346.46        42
 174         346.82        35
 175         347.19        40
 176         347.56        45
 177         347.92        47
 178         348.29        41
 179         348.66        43
 180         349.02        42
 181         349.39        36
 182         349.76        43
 183         350.12        41
 184         350.49        44
 185         350.86        36
 186         351.22        38
 187         351.59        37
 188         351.96        43
 189         352.33        45
 190         352.69        46
 191         353.06        37
 192         353.43        40
 193         353.79        44
 194         354.16        38
 195         354.53        36
 196         354.90        39
 197         355.26        41
 198         355.63        39
 199         356.00        40
 200         356.37        32
 201         356.74        41
 202         357.10        36
 203         357.47        39
 204         357.84        40
 205         358.21        43
 206         358.57        38
 207         358.94        39
 208         359.31        39
 209         359.68        40
 210         360.05        42
 211         360.42        38
 212         360.78        39
 213         361.15        35
 214         361.52        34
 215         361.89        40
 216         362.26        37
 217         362.63        38
 218         363.00        34
 219         363.37        36
 220         363.73        41
 221         364.10        41
 222         364.47        40
 223         364.84        32
 224         365.21        37
 225         365.58        43
 226         365.95        40
 227         366.32        38
 228         366.69        36
 229         367.06        36
 230         367.43        39
 231         367.80        42
 232         368.17        38
 233         368.54        40
 234         368.90        38
 235         369.27        42
 236         369.64        38
 237         370.01        37
 238         370.38        38
 239         370.75        38
 240         371.12        36
 241         371.49        40
 242         371.86        36
 243         372.23        44
 244         372.61        34
 245         372.98        34
 246         373.35        35
 247         373.72        38
 248         374.09        45
 249         374.46        32
 250         374.83        34
 251         375.20        39
 252         375.57        35
 253         375.94        29
 254         376.31        33
 255         376.68        34
 256         377.05        38
 257         377.42        33
 258         377.79        33
 259         378.17        32
 260         378.54        35
 261         378.91        36
 262         379.28        35
 263         379.65        31
 264         380.02        44
 265         380.39        40
 266         380.77        35
 267         381.14        35
 268         381.51        35
 269         381.88        37
 270         382.25        39
 271         382.62        36
 272         383.00        34
 273         383.37        38
 274         383.74        48
 275         384.11        38
 276         384.48        40
 277         384.86        43
 278         385.23        37
 279         385.60        41
 280         385.97        35
 281         386.35        42
 282         386.72        42
 283         387.09        35
 284         387.46        38
 285         387.84        40
 286         388.21        40
 287         388.58        42
 288         388.95        39
 289         389.33        41
 290         389.70        42
 291         390.07        44
 292         390.44        41
 293         390.82        37
 294         391.19        43
 295         391.56        41
 296         391.94        41
 297         392.31        42
 298         392.68        44
 299         393.06        44
 300         393.43        40
 301         393.80        40
 302         394.18        40
 303         394.55        41
 304         394.92        38
 305         395.30        42
 306         395.67        40
 307         396.05        46
 308         396.42        45
 309         396.79        44
 310         397.17        44
 311         397.54        40
 312         397.92        43
 313         398.29        47
 314         398.66        41
 315         399.04        42
 316         399.41        36
 317         399.79        38
 318         400.16        47
 319         400.54        40
 320         400.91        45
 321         401.28        48
 322         401.66        50
 323         402.03        46
 324         402.41        42
 325         402.78        45
 326         403.16        44
 327         403.53        47
 328         403.91        45
 329         404.28        46
 330         404.66        47
 331         405.03        43
 332         405.41        46
 333         405.78        41
 334         406.16        44
 335         406.53        51
 336         406.91        47
 337         407.29        51
 338         407.66        52
 339         408.04        51
 340         408.41        50
 341         408.79        39
 342         409.16        54
 343         409.54        55
 344         409.92        50
 345         410.29        55
 346         410.67        50
 347         411.04        49
 348         411.42        57
 349         411.79        56
 350         412.17        57
 351         412.55        58
 352         412.92        56
 353         413.30        58
 354         413.68        56
 355         414.05        58
 356         414.43        66
 357         414.81        64
 358         415.18        63
 359         415.56        66
 360         415.94        64
 361         416.31        74
 362         416.69        70
 363         417.07        67
 364         417.44        75
 365         417.82        81
 366         418.20        80
 367         418.57        83
 368         418.95        82
 369         419.33        88
 370         419.71        86
 371         420.08        94
 372         420.46        93
 373         420.84        99
 374         421.21       108
 375         421.59       105
 376         421.97       107
 377         422.35       114
 378         422.72       121
 379         423.10       123
 380         423.48       132
 381         423.86       139
 382         424.24       135
 383         424.61       138
 384         424.99       145
 385         425.37       153
 386         425.75       162
 387         426.13       176
 388         426.50       180
 389         426.88       183
 390         427.26       179
 391         427.64       197
 392         428.02       214
 393         428.40       217
 394         428.77       239
 395         429.15       219
 396         429.53       242
 397         429.91       262
 398         430.29       245
 399         430.67       276
 400         431.05       279
 401         431.42       294
 402         431.80       302
 403         432.18       305
 404         432.56       312
 405         432.94       341
 406         433.32       347
 407         433.70       336
 408         434.08       342
 409         434.46       371
 410         434.84       410
 411         435.22       414
 412         435.60       416
 413         435.98       427
 414         436.35       459
 415         436.73       487
 416         437.11       476
 417         437.49       528
 418         437.87       533
 419         438.25       508
 420         438.63       554
 421         439.01       561
 422         439.39       511
 423         439.77       608
 424         440.15       597
 425         440.53       600
 426         440.91       606
 427         441.29       589
 428         441.67       634
 429         442.05       673
 430         442.43       692
 431         442.81       666
 432         443.19       713
 433         443.58       674
 434         443.96       706
 435         444.34       732
 436         444.72       755
 437         445.10       791
 438         445.48       765
 439         445.86       781
 440         446.24       806
 441         446.62       829
 442         447.00       831
 443         447.38       824
 444         447.76       872
 445         448.15       907
 446         448.53       905
 447         448.91       972
 448         449.29       995
 449         449.67       987
 450         450.05       996
 451         450.43       952
 452         450.81      1001
 453         451.20      1165
 454         451.58      1209
 455         451.96      1166
 456         452.34      1084
 457         452.72      1206
 458         453.10      1236
 459         453.49      1306
 460         453.87      1182
 461         454.25      1232
 462         454.63      1225
 463         455.01      1276
 464         455.40      1370
 465         455.78      1383
 466         456.16      1549
 467         456.54      1434
 468         456.92      1330
 469         457.31      1383
 470         457.69      1265
 471         458.07      1383
 472         458.45      1402
 473         458.84      1676
 474         459.22      1614
 475         459.60      1760
 476         459.98      1660
 477         460.37      1475
 478         460.75      1405
 479         461.13      1547
 480         461.52      1525
 481         461.90      1646
 482         462.28      1594
 483         462.66      1513
 484         463.05      1516
 485         463.43      1569
 486         463.81      1524
 487         464.20      1456
 488         464.58      1494
 489         464.96      1624
 490         465.35      1440
 491         465.73      1514
 492         466.11      1601
 493         466.50      1575
 494         466.88      1482
 495         467.27      1462
 496         467.65      1525
 497         468.03      1509
 498         468.42      1416
 499         468.80      1467
 500         469.18      1477
 501         469.57      1463
 502         469.95      1528
 503         470.34      1467
 504         470.72      1470
 505         471.10      1383
 506         471.49      1446
 507         471.87      1427
 508         472.26      1409
 509         472.64      1369
 510         473.03      1416
 511         473.41      1350
 512         473.79      1366
 513         474.18      1357
 514         474.56      1340
 515         474.95      1327
 516         475.33      1335
 517         475.72      1292
 518         476.10      1287
 519         476.49      1264
 520         476.87      1320
 521         477.26      1270
 522         477.64      1291
 523         478.03      1284
 524         478.41      1222
 525         478.80      1224
 526         479.18      1230
 527         479.57      1167
 528         479.95      1218
 529         480.34      1178
 530         480.72      1168
 531         481.11      1165
 532         481.49      1158
 533         481.88      1117
 534         482.26      1111
 535         482.65      1078
 536         483.04      1082
 537         483.42      1038
 538         483.81      1021
 539         484.19      1023
 540         484.58      1018
 541         484.96       995
 542         485.35       975
 543         485.74       978
 544         486.12       956
 545         486.51       926
 546         486.89       922
 547         487.28       890
 548         487.67       855
 549         488.05       869
 550         488.44       859
 551         488.83       823
 552         489.21       803
 553         489.60       799
 554         489.99       771
 555         490.37       762
 556         490.76       733
 557         491.14       734
 558         491.53       717
 559         491.92       697
 560         492.31       676
 561         492.69       667
 562         493.08       651
 563         493.47       646
 564         493.85       633
 565         494.24       635
 566         494.63       613
 567         495.01       600
 568         495.40       594
 569         495.79       568
 570         496.18       568
 571         496.56       561
 572         496.95       544
 573         497.34       535
 574         497.72       531
 575         498.11       520
 576         498.50       524
 577         498.89       511
 578         499.28       501
 579         499.66       510
 580         500.05       504
 581         500.44       478
 582         500.83       473
 583         501.21       475
 584         501.60       470
 585         501.99       449
 586         502.38       463
 587         502.77       446
 588         503.15       448
 589         503.54       432
 590         503.93       437
 591         504.32       423
 592         504.71       424
 593         505.09       433
 594         505.48       428
 595         505.87       415
 596         506.26       414
 597         506.65       409
 598         507.04       410
 599         507.43       414
 600         507.81       397
 601         508.20       399
 602         508.59       401
 603         508.98       379
 604         509.37       402
 605         509.76       393
 606         510.15       385
 607         510.54       380
 608         510.93       378
 609         511.31       375
 610         511.70       366
 611         512.09       382
 612         512.48       370
 613         512.87       367
 614         513.26       352
 615         513.65       355
 616         514.04       353
 617         514.43       348
 618         514.82       340
 619         515.21       347
 620         515.60       343
 621         515.99       338
 622         516.38       346
 623         516.77       325
 624         517.16       335
 625         517.55       321
 626         517.94       328
 627         518.33       317
 628         518.72       311
 629         519.11       304
 630         519.50       307
 631         519.89       294
 632         520.28       292
 633         520.67       283
 634         521.06       283
 635         521.45       287
 636         521.84       282
 637         522.23       262
 638         522.62       256
 639         523.01       262
 640         523.40       259
 641         523.79       257
 642         524.18       249
 643         524.57       244
 644         524.96       239
 645         525.35       229
 646         525.74       229
 647         526.13       222
 648         526.52       223
 649         526.91       220
 650         527.31       220
 651         527.70       212
 652         528.09       207
 653         528.48       204
 654         528.87       199
 655         529.26       197
 656         529.65       188
 657         530.04       193
 658         530.43       186
 659         530.83       179
 660         531.22       185
 661         531.61       178
 662         532.00       172
 663         532.39       167
 664         532.78       171
 665         533.17       175
 666         533.57       159
 667         533.96       164
 668         534.35       156
 669         534.74       153
 670         535.13       154
 671         535.52       149
 672         535.92       155
 673         536.31       147
 674         536.70       145
 675         537.09       151
 676         537.48       146
 677         537.88       148
 678         538.27       143
 679         538.66       138
 680         539.05       130
 681         539.45       136
 682         539.84       131
 683         540.23       134
 684         540.62       124
 685         541.02       129
 686         541.41       117
 687         541.80       122
 688         542.19       121
 689         542.59       121
 690         542.98       126
 691         543.37       116
 692         543.76       119
 693         544.16       117
 694         544.55       119
 695         544.94       118
 696         545.34       106
 697         545.73       122
 698         546.12       109
 699         546.51       111
 700         546.91       105
 701         547.30       106
 702         547.69       100
 703         548.09       106
 704         548.48       107
 705         548.87       106
 706         549.27       101
 707         549.66       104
 708         550.05       101
 709         550.45       100
 710         550.84       102
 711         551.24        97
 712         551.63       100
 713         552.02       100
 714         552.42        97
 715         552.81        98
 716         553.20        89
 717         553.60        96
 718         553.99        99
 719         554.39        94
 720         554.78        95
 721         555.17        98
 722         555.57        91
 723         555.96        90
 724         556.36        86
 725         556.75        86
 726         557.14        84
 727         557.54        90
 728         557.93        83
 729         558.33        85
 730         558.72        84
 731         559.12        83
 732         559.51        79
 733         559.91        80
 734         560.30        80
 735         560.69        76
 736         561.09        70
 737         561.48        76
 738         561.88        73
 739         562.27        69
 740         562.67        69
 741         563.06        64
 742         563.46        55
 743         563.85        59
 744         564.25        58
 745         564.64        62
 746         565.04        52
 747         565.43        55
 748         565.83        58
 749         566.22        54
 750         566.62        60
 751         567.01        58
 752         567.41        62
 753         567.80        62
 754         568.20        56
 755         568.60        59
 756         568.99        61
 757         569.39        59
 758         569.78        62
 759         570.18        59
 760         570.57        56
 761         570.97        58
 762         571.36        55
 763         571.76        58
 764         572.16        56
 765         572.55        49
 766         572.95        47
 767         573.34        59
 768         573.74        45
 769         574.14        48
 770         574.53        49
 771         574.93        52
 772         575.32        48
 773         575.72        52
 774         576.12        47
 775         576.51        50
 776         576.91        44
 777         577.31        47
 778         577.70        48
 779         578.10        44
 780         578.50        41
 781         578.89        42
 782         579.29        44
 783         579.69        40
 784         580.08        45
 785         580.48        45
 786         580.88        40
 787         581.27        47
 788         581.67        44
 789         582.07        44
 790         582.46        41
 791         582.86        45
 792         583.26        43
 793         583.65        42
 794         584.05        35
 795         584.45        38
 796         584.84        41
 797         585.24        40
 798         585.64        46
 799         586.04        39
 800         586.43        39
 801         586.83        39
 802         587.23        41
 803         587.63        35
 804         588.02        40
 805         588.42        39
 806         588.82        39
 807         589.22        43
 808         589.61        36
 809         590.01        44
 810         590.41        45
 811         590.81        41
 812         591.20        41
 813         591.60        38
 814         592.00        40
 815         592.40        41
 816         592.80        36
 817         593.19        42
 818         593.59        36
 819         593.99        35
 820         594.39        36
 821         594.79        43
 822         595.18        33
 823         595.58        42
 824         595.98        44
 825         596.38        40
 826         596.78        40
 827         597.18        41
 828         597.57        38
 829         597.97        38
 830         598.37        42
 831         598.77        43
 832         599.17        43
 833         599.57        40
 834         599.97        37
 835         600.36        46
 836         600.76        45
 837         601.16        40
 838         601.56        38
 839         601.96        42
 840         602.36        44
 841         602.76        42
 842         603.16        43
 843         603.56        36
 844         603.95        47
 845         604.35        45
 846         604.75        40
 847         605.15        46
 848         605.55        43
 849         605.95        41
 850         606.35        44
 851         606.75        43
 852         607.15        41
 853         607.55        40
 854         607.95        40
 855         608.35        38
 856         608.75        47
 857         609.15        43
 858         609.55        46
 859         609.95        49
 860         610.35        40
 861         610.74        45
 862         611.14        44
 863         611.54        44
 864         611.94        51
 865         612.34        43
 866         612.74        43
 867         613.14        42
 868         613.54        42
 869         613.94        47
 870         614.34        42
 871         614.74        44
 872         615.14        41
 873         615.54        45
 874         615.94        44
 875         616.34        44
 876         616.74        41
 877         617.15        48
 878         617.55        42
 879         617.95        40
 880         618.35        44
 881         618.75        40
 882         619.15        40
 883         619.55        44
 884         619.95        40
 885         620.35        36
 886         620.75        41
 887         621.15        47
 888         621.55        42
 889         621.95        36
 890         622.35        39
 891         622.75        47
 892         623.15        40
 893         623.56        39
 894         623.96        37
 895         624.36        41
 896         624.76        43
 897         625.16        35
 898         625.56        38
 899         625.96        41
 900         626.36        41
 901         626.76        39
 902         627.17        39
 903         627.57        36
 904         627.97        40
 905         628.37        41
 906         628.77        39
 907         629.17        46
 908         629.57        42
 909         629.98        38
 910         630.38        41
 911         630.78        39
 912         631.18        45
 913         631.58        40
 914         631.98        43
 915         632.39        41
 916         632.79        40
 917         633.19        41
 918         633.59        45
 919         633.99        35
 920         634.39        39
 921         634.80        40
 922         635.20        43
 923         635.60        41
 924         636.00        45
 925         636.40        44
 926         636.81        50
 927         637.21        41
 928         637.61        40
 929         638.01        36
 930         638.42        39
 931         638.82        39
 932         639.22        38
 933         639.62        44
 934         640.03        42
 935         640.43        37
 936         640.83        37
 937         641.23        41
 938         641.64        40
 939         642.04        45
 940         642.44        44
 941         642.84        41
 942         643.25        39
 943         643.65        41
 944         644.05        37
 945         644.45        39
 946         644.86        41
 947         645.26        45
 948         645.66        43
 949         646.07        47
 950         646.47        48
 951         646.87        45
 952         647.28        41
 953         647.68        44
 954         648.08        42
 955         648.49        41
 956         648.89        43
 957         649.29        48
 958         649.69        49
 959         650.10        47
 960         650.50        54
 961         650.91        49
 962         651.31        49
 963         651.71        51
 964         652.12        48
 965         652.52        56
 966         652.92        48
 967         653.33        53
 968         653.73        57
 969         654.13        58
 970         654.54        58
 971         654.94        60
 972         655.34        59
 973         655.75        60
 974         656.15        61
 975         656.56        62
 976         656.96        70
 977         657.36        75
 978         657.77        64
 979         658.17        71
 980         658.58        78
 981         658.98        78
 982         659.38        83
 983         659.79        86
 984         660.19        93
 985         660.60        81
 986         661.00        81
 987         661.41        84
 988         661.81        92
 989         662.21        84
 990         662.62        92
 991         663.02        91
 992         663.43       103
 993         663.83       100
 994         664.24        95
 995         664.64        95
 996         665.05        98
 997         665.45        98
 998         665.86        96
 999         666.26       103
1000         666.67       103
1001         667.07       107
1002         667.48       112
1003         667.88       108
1004         668.28       107
1005         668.69       110
1006         669.09       109
1007         669.50       104
1008         669.90       112
1009         670.31       108
1010         670.72       115
1011         671.12       113
1012         671.53       107
1013         671.93       121
1014         672.34       113
1015         672.74       116
1016         673.15       124
1017         673.55       119
1018         673.96       117
1019         674.36       119
1020         674.77       119
1021         675.17       116
1022         675.58       114
1023         675.98       115
1024         676.39       113
1025         676.80       117
1026         677.20       111
1027         677.61       120
1028         678.01       109
1029         678.42       116
1030         678.82       121
1031         679.23       112
1032         679.64       119
1033         680.04       117
1034         680.45       122
1035         680.85       118
1036         681.26       117
1037         681.67       110
1038         682.07       121
1039         682.48       119
1040         682.88       119
1041         683.29       114
1042         683.70       116
1043         684.10       112
1044         684.51       111
1045         684.92       117
1046         685.32       118
1047         685.73       119
1048         686.13       111
1049         686.54       113
1050         686.95       113
1051         687.35       117
1052         687.76       112
1053         688.17       116
1054         688.57       114
1055         688.98       112
1056         689.39       108
1057         689.79       108
1058         690.20       116
1059         690.61       107
1060         691.01       112
1061         691.42       108
1062         691.83       106
1063         692.23       113
1064         692.64       104
1065         693.05       105
1066         693.45       112
1067         693.86       108
1068         694.27        97
1069         694.68       105
1070         695.08       101
1071         695.49        99
1072         695.90       106
1073         696.30       103
1074         696.71        96
1075         697.12        99
1076         697.53        95
1077         697.93        96
1078         698.34        94
1079         698.75        96
1080         699.16        99
1081         699.56        90
1082         699.97        96
1083         700.38        92
1084         700.79        95
1085         701.19        91
1086         701.60        89
1087         702.01        89
1088         702.42        90
1089         702.82        89
1090         703.23        85
1091         703.64        86
1092         704.05        90
1093         704.46        87
1094         704.86        86
1095         705.27        94
1096         705.68        87
1097         706.09        84
1098         706.49        88
1099         706.90        96
1100         707.31        84
1101         707.72        84
1102         708.13        82
1103         708.54        79
1104         708.94        78
1105         709.35        80
1106         709.76        80
1107         710.17        82
1108         710.58        84
1109         710.98        79
1110         711.39        78
1111         711.80        78
1112         712.21        81
1113         712.62        80
1114         713.03        78
1115         713.44        75
1116         713.84        71
1117         714.25        75
1118         714.66        76
1119         715.07        79
1120         715.48        67
1121         715.89        72
1122         716.30        74
1123         716.70        72
1124         717.11        78
1125         717.52        70
1126         717.93        76
1127         718.34        78
1128         718.75        68
1129         719.16        69
1130         719.57        69
1131         719.98        69
1132         720.39        74
1133         720.79        64
1134         721.20        69
1135         721.61        66
1136         722.02        66
1137         722.43        71
1138         722.84        66
1139         723.25        67
1140         723.66        68
1141         724.07        66
1142         724.48        57
1143         724.89        65
1144         725.30        57
1145         725.71        60
1146         726.12        67
1147         726.52        66
1148         726.93        63
1149         727.34        65
1150         727.75        63
1151         728.16        55
1152         728.57        59
1153         728.98        68
1154         729.39        58
1155         729.80        61
1156         730.21        60
1157         730.62        58
1158         731.03        56
1159         731.44        61
1160         731.85        59
1161         732.26        59
1162         732.67        57
1163         733.08        56
1164         733.49        56
1165         733.90        58
1166         734.31        55
1167         734.72        55
1168         735.13        57
1169         735.54        57
1170         735.95        48
1171         736.36        53
1172         736.77        54
1173         737.18        56
1174         737.59        51
1175         738.00        48
1176         738.41        55
1177         738.82        51
1178         739.23        50
1179         739.64        46
1180         740.05        50
1181         740.47        55
1182         740.88        54
1183         741.29        47
1184         741.70        51
1185         742.11        54
1186         742.52        48
1187         742.93        51
1188         743.34        44
1189         743.75        43
1190         744.16        50
1191         744.57        50
1192         744.98        46
1193         745.39        46
1194         745.80        43
1195         746.22        44
1196         746.63        44
1197         747.04        47
1198         747.45        44
1199         747.86        46
1200         748.27        46
1201         748.68        49
1202         749.09        44
1203         749.50        44
1204         749.91        40
1205         750.33        42
1206         750.74        46
1207         751.15        42
1208         751.56        39
1209         751.97        44
1210         752.38        41
1211         752.79        41
1212         753.20        40
1213         753.62        46
1214         754.03        37
1215         754.44        44
1216         754.85        42
1217         755.26        44
1218         755.67        44
1219         756.09        47
1220         756.50        39
1221         756.91        39
1222         757.32        37
1223         757.73        37
1224         758.14        36
1225         758.56        41
1226         758.97        43
1227         759.38        37
1228         759.79        40
1229         760.20        42
1230         760.61        37
1231         761.03        36
1232         761.44        43
1233         761.85        38
1234         762.26        38
1235         762.67        35
1236         763.09        37
1237         763.50        45
1238         763.91        35
1239         764.32        43
1240         764.73        36
1241         765.15        36
1242         765.56        29
1243         765.97        34
1244         766.38        36
1245         766.80        38
1246         767.21        35
1247         767.62        40
1248         768.03        33
1249         768.45        36
1250         768.86        38
1251         769.27        45
1252         769.68        45
1253         770.10        37
1254         770.51        36
1255         770.92        37
1256         771.33        41
1257         771.75        38
1258         772.16        45
1259         772.57        37
1260         772.98        39
1261         773.40        39
1262         773.81        35
1263         774.22        37
1264         774.63        41
1265         775.05        45
1266         775.46        35
1267         775.87        40
1268         776.29        35
1269         776.70        39
1270         777.11        42
1271         777.52        41
1272         777.94        39
1273         778.35        36
1274         778.76        39
1275         779.18        37
1276         779.59        41
1277         780.00        35
1278         780.42        34
1279         780.83        38
1280         781.24        40
1281         781.66        37
1282         782.07        42
1283         782.48        44
1284         782.90        40
1285         783.31        37
1286         783.72        39
1287         784.14        38
1288         784.55        39
1289         784.96        36
1290         785.38        33
1291         785.79        39
1292         786.20        40
1293         786.62        41
1294         787.03        42
1295         787.44        37
1296         787.86        40
1297         788.27        34
1298         788.69        36
1299         789.10        40
1300         789.51        33
1301         789.93        36
1302         790.34        40
1303         790.75        46
1304         791.17        41
1305         791.58        34
1306         792.00        42
1307         792.41        41
1308         792.82        32
1309         793.24        36
1310         793.65        38
1311         794.07        40
1312         794.48        35
1313         794.89        48
1314         795.31        35
1315         795.72        40
1316         796.14        31
1317         796.55        39
1318         796.96        43
1319         797.38        39
1320         797.79        40
1321         798.21        27
1322         798.62        37
1323         799.04        38
1324         799.45        38
1325         799.86        35
1326         800.28        31
1327         800.69        27
1328         801.11        36
1329         801.52        32
1330         801.94        36
1331         802.35        32
1332         802.77        36
1333         803.18        37
1334         803.59        42
1335         804.01        38
1336         804.42        37
1337         804.84        34
1338         805.25        31
1339         805.67        38
1340         806.08        32
1341         806.50        32
1342         806.91        33
1343         807.33        30
1344         807.74        33
1345         808.16        30
1346         808.57        30
1347         808.99        36
1348         809.40        34
1349         809.82        36
1350         810.23        27
1351         810.65        36
1352         811.06        34
1353         811.48        33
1354         811.89        33
1355         812.31        35
1356         812.72        34
1357         813.14        25
1358         813.55        29
1359         813.97        30
1360         814.38        32
1361         814.80        30
1362         815.21        31
1363         815.63        29
1364         816.04        33
1365         816.46        34
1366         816.87        33
1367         817.29        32
1368         817.70        37
1369         818.12        33
1370         818.54        36
1371         818.95        35
1372         819.37        31
1373         819.78        27
1374         820.20        31
1375         820.61        35
1376         821.03        25
1377         821.44        27
1378         821.86        22
1379         822.28        35
1380         822.69        28
1381         823.11        27
1382         823.52        31
1383         823.94        31
1384         824.35        29
1385         824.77        34
1386         825.19        35
1387         825.60        32
1388         826.02        32
1389         826.43        32
1390         826.85        30
1391         827.26        30
1392         827.68        29
1393         828.10        27
1394         828.51        30
1395         828.93        28
1396         829.34        29
1397         829.76        28
1398         830.18        34
1399         830.59        31
1400         831.01        28
1401         831.43        28
1402         831.84        25
1403         832.26        26
1404         832.67        25
1405         833.09        30
1406         833.51        28
1407         833.92        32
1408         834.34        26
1409         834.76        35
1410         835.17        31
1411         835.59        29
1412         836.00        28
1413         836.42        27
1414         836.84        28
1415         837.25        35
1416         837.67        27
1417         838.09        29
1418         838.50        33
1419         838.92        28
1420         839.34        31
1421         839.75        29
1422         840.17        30
1423         840.59        28
1424         841.00        31
1425         841.42        25
1426         841.84        32
1427         842.25        35
1428         842.67        34
1429         843.09        34
1430         843.50        38
1431         843.92        23
1432         844.34        35
1433         844.75        33
1434         845.17        37
1435         845.59        29
1436         846.00        29
1437         846.42        29
1438         846.84        34
1439         847.25        31
1440         847.67        31
1441         848.09        29
1442         848.51        34
1443         848.92        36
1444         849.34        34
1445         849.76        37
1446         850.17        33
1447         850.59        33
1448         851.01        33
1449         851.43        33
1450         851.84        29
1451         852.26        41
1452         852.68        33
1453         853.09        33
1454         853.51        35
1455         853.93        39
1456         854.35        35
1457         854.76        34
1458         855.18        38
1459         855.60        38
1460         856.02        32
1461         856.43        36
1462         856.85        39
1463         857.27        39
1464         857.69        35
1465         858.10        42
1466         858.52        38
1467         858.94        32
1468         859.36        36
1469         859.77        38
1470         860.19        36
1471         860.61        33
1472         861.03        39
1473         861.44        35
1474         861.86        38
1475         862.28        35
1476         862.70        38
1477         863.12        34
1478         863.53        34
1479         863.95        34
1480         864.37        34
1481         864.79        36
1482         865.20        46
1483         865.62        36
1484         866.04        38
1485         866.46        38
1486         866.88        36
1487         867.29        40
1488         867.71        37
1489         868.13        34
1490         868.55        39
1491         868.97        33
1492         869.38        38
1493         869.80        39
1494         870.22        35
1495         870.64        44
1496         871.06        37
1497         871.47        37
1498         871.89        41
1499         872.31        37
1500         872.73        38
1501         873.15        43
1502         873.57        36
1503         873.98        40
1504         874.40        41
1505         874.82        43
1506         875.24        39
1507         875.66        33
1508         876.08        42
1509         876.49        38
1510         876.91        37
1511         877.33        36
1512         877.75        36
1513         878.17        39
1514         878.59        42
1515         879.00        37
1516         879.42        39
1517         879.84        37
1518         880.26        41
1519         880.68        36
1520         881.10        38
1521         881.52        39
1522         881.93        38
1523         882.35        39
1524         882.77        35
1525         883.19        37
1526         883.61        44
1527         884.03        40
1528         884.45        36
1529         884.87        37
1530         885.28        34
1531         885.70        31
1532         886.12        36
1533         886.54        34
1534         886.96        37
1535         887.38        37
1536         887.80        36
1537         888.22        39
1538         888.64        39
1539         889.05        37
1540         889.47        40
1541         889.89        32
1542         890.31        34
1543         890.73        38
1544         891.15        27
1545         891.57        36
1546         891.99        33
1547         892.41        30
1548         892.83        42
1549         893.24        32
1550         893.66        34
1551         894.08        38
1552         894.50        38
1553         894.92        35
1554         895.34        34
1555         895.76        32
1556         896.18        32
1557         896.60        30
1558         897.02        33
1559         897.44        30
1560         897.86        28
1561         898.28        34
1562         898.69        35
1563         899.11        31
1564         899.53        35
1565         899.95        36
1566         900.37        27
1567         900.79        28
1568         901.21        33
1569         901.63        30
1570         902.05        32
1571         902.47        32
1572         902.89        35
1573         903.31        43
1574         903.73        26
1575         904.15        31
1576         904.57        33
1577         904.99        41
1578         905.41        63
1579         905.83        41
1580         906.25        29
1581         906.67        29
1582         907.09        30
1583         907.51        31
1584         907.93        31
1585         908.34        28
1586         908.76        26
1587         909.18        28
1588         909.60        31
1589         910.02        31
1590         910.44        29
1591         910.86        34
1592         911.28        36
1593         911.70        33
1594         912.12        34
1595         912.54        37
1596         912.96        31
1597         913.38        27
1598         913.80        28
1599         914.22        35
1600         914.64        29
1601         915.06        36
1602         915.48        29
1603         915.90        29
1604         916.32        30
1605         916.74        35
1606         917.16        26
1607         917.58        31
1608         918.00        31
1609         918.42        27
1610         918.84        34
1611         919.26        37
1612         919.68        33
1613         920.10        27
1614         920.53        38
1615         920.95        27
1616         921.37        28
1617         921.79        29
1618         922.21        34
1619         922.63        31
1620         923.05        27
1621         923.47        31
1622         923.89        32
1623         924.31        32
1624         924.73        35
1625         925.15        37
1626         925.57        30
1627         925.99        34
1628         926.41        32
1629         926.83        34
1630         927.25        29
1631         927.67        37
1632         928.09        34
1633         928.51        35
1634         928.93        42
1635         929.35        36
1636         929.77        33
1637         930.19        34
1638         930.62        33
1639         931.04        40
1640         931.46        33
1641         931.88        33
1642         932.30        33
1643         932.72        41
1644         933.14        40
1645         933.56        36
1646         933.98        37
1647         934.40        32
1648         934.82        32
1649         935.24        39
1650         935.66        36
1651         936.08        39
1652         936.51        33
1653         936.93        36
1654         937.35        37
1655         937.77        36
1656         938.19        34
1657         938.61        36
1658         939.03        34
1659         939.45        38
1660         939.87        42
1661         940.29        37
1662         940.71        37
1663         941.14        37
1664         941.56        37
1665         941.98        38
1666         942.40        41
1667         942.82        38
1668         943.24        38
1669         943.66        34
1670         944.08        39
1671         944.50        40
1672         944.92        43
1673         945.35        30
1674         945.77        38
1675         946.19        41
1676         946.61        42
1677         947.03        39
1678         947.45        43
1679         947.87        39
1680         948.29        39
1681         948.72        38
1682         949.14        38
1683         949.56        39
1684         949.98        35
1685         950.40        38
1686         950.82        39
1687         951.24        37
1688         951.66        40
1689         952.09        35
1690         952.51        41
1691         952.93        33
1692         953.35        43
1693         953.77        39
1694         954.19        34
1695         954.61        39
1696         955.04        36
1697         955.46        38
1698         955.88        39
1699         956.30        33
1700         956.72        31
1701         957.14        41
1702         957.56        36
1703         957.99        41
1704         958.41        36
1705         958.83        38
1706         959.25        36
1707         959.67        37
1708         960.09        32
1709         960.52        33
1710         960.94        33
1711         961.36        35
1712         961.78        39
1713         962.20        36
1714         962.62        35
1715         963.05        36
1716         963.47        39
1717         963.89        39
1718         964.31        38
1719         964.73        40
1720         965.15        39
1721         965.58        37
1722         966.00        37
1723         966.42        42
1724         966.84        37
1725         967.26        28
1726         967.69        37
1727         968.11        35
1728         968.53        40
1729         968.95        33
1730         969.37        33
1731         969.79        35
1732         970.22        30
1733         970.64        37
1734         971.06        38
1735         971.48        32
1736         971.90        29
1737         972.33        34
1738         972.75        36
1739         973.17        34
1740         973.59        33
1741         974.01        37
1742         974.44        29
1743         974.86        38
1744         975.28        33
1745         975.70        33
1746         976.12        37
1747         976.55        30
1748         976.97        30
1749         977.39        31
1750         977.81        27
1751         978.24        36
1752         978.66        31
1753         979.08        32
1754         979.50        30
1755         979.92        33
1756         980.35        34
1757         980.77        30
1758         981.19        25
1759         981.61        38
1760         982.03        34
1761         982.46        33
1762         982.88        36
1763         983.30        37
1764         983.72        34
1765         984.15        35
1766         984.57        30
1767         984.99        31
1768         985.41        30
1769         985.84        32
1770         986.26        32
1771         986.68        28
1772         987.10        31
1773         987.53        39
1774         987.95        31
1775         988.37        33
1776         988.79        31
1777         989.21        34
1778         989.64        33
1779         990.06        33
1780         990.48        31
1781         990.90        31
1782         991.33        31
1783         991.75        29
1784         992.17        28
1785         992.59        32
1786         993.02        32
1787         993.44        28
1788         993.86        23
1789         994.29        29
1790         994.71        33
1791         995.13        31
1792         995.55        33
1793         995.98        28
1794         996.40        35
1795         996.82        39
1796         997.24        27
1797         997.67        29
1798         998.09        29
1799         998.51        31
1800         998.93        33
1801         999.36        29
1802         999.78        32
1803        1000.20        30
1804        1000.63        33
1805        1001.05        28
1806        1001.47        34
1807        1001.89        33
1808        1002.32        32
1809        1002.74        29
1810        1003.16        32
1811        1003.58        29
1812        1004.01        29
1813        1004.43        31
1814        1004.85        34
1815        1005.28        31
1816        1005.70        35
1817        1006.12        33
1818        1006.54        30
1819        1006.97        30
1820        1007.39        38
1821        1007.81        31
1822        1008.24        38
1823        1008.66        35
1824        1009.08        33
1825        1009.50        32
1826        1009.93        32
1827        1010.35        30
1828        1010.77        34
1829        1011.20        31
1830        1011.62        30
1831        1012.04        31
1832        1012.47        38
1833        1012.89        36
1834        1013.31        33
1835        1013.73        35
1836        1014.16        31
1837        1014.58        39
1838        1015.00        36
1839        1015.43        36
1840        1015.85        42
1841        1016.27        38
1842        1016.70        28
1843        1017.12        31
1844        1017.54        45
1845        1017.97        38
1846        1018.39        33
1847        1018.81        32
1848        1019.24        33
1849        1019.66        38
1850        1020.08        37
1851        1020.50        40
1852        1020.93        36
1853        1021.35        32
1854        1021.77        39
1855        1022.20        40
1856        1022.62        33
1857        1023.04        36
1858        1023.47        42
1859        1023.89        39
1860        1024.31        36
1861        1024.74        36
1862        1025.16        33
1863        1025.58        30
1864        1026.01        34
1865        1026.43        42
1866        1026.85        37
1867        1027.28        36
1868        1027.70        37
1869        1028.12        39
1870        1028.55        36
1871        1028.97        36
1872        1029.39        36
1873        1029.82        40
1874        1030.24        30
1875        1030.66        37
1876        1031.09        36
1877        1031.51        35
1878        1031.93        36
1879        1032.36        35
1880        1032.78        36
1881        1033.20        38
1882        1033.63        37
1883        1034.05        36
1884        1034.47        38
1885        1034.90        35
1886        1035.32        38
1887        1035.75        35
1888        1036.17        39
1889        1036.59        40
1890        1037.02        41
1891        1037.44        36
1892        1037.86        39
1893        1038.29        34
1894        1038.71        41
1895        1039.13        33
1896        1039.56        30
1897        1039.98        32
1898        1040.40        34
1899        1040.83        41
1900        1041.25        34
1901        1041.67        30
1902        1042.10        36
1903        1042.52        36
1904        1042.95        36
1905        1043.37        39
1906        1043.79        34
1907        1044.22        37
1908        1044.64        32
1909        1045.06        39
1910        1045.49        34
1911        1045.91        37
1912        1046.33        32
1913        1046.76        32
1914        1047.18        33
1915        1047.61        34
1916        1048.03        35
1917        1048.45        35
1918        1048.88        28
1919        1049.30        36
1920        1049.72        29
1921        1050.15        34
1922        1050.57        35
1923        1051.00        31
1924        1051.42        33
1925        1051.84        31
1926        1052.27        29
1927        1052.69        34
1928        1053.11        32
1929        1053.54        37
1930        1053.96        32
1931        1054.39        28
1932        1054.81        35
1933        1055.23        37
1934        1055.66        29
1935        1056.08        31
1936        1056.51        33
1937        1056.93        31
1938        1057.35        29
1939        1057.78        33
1940        1058.20        33
1941        1058.62        29
1942        1059.05        31
1943        1059.47        32
1944        1059.90        37
1945        1060.32        35
1946        1060.74        32
1947        1061.17        32
1948        1061.59        31
1949        1062.02        35
1950        1062.44        33
1951        1062.86        28
1952        1063.29        34
1953        1063.71        31
1954        1064.14        31
1955        1064.56        30
1956        1064.98        31
1957        1065.41        36
1958        1065.83        29
1959        1066.26        34
1960        1066.68        25
1961        1067.10        30
1962        1067.53        31
1963        1067.95        34
1964        1068.37        25
1965        1068.80        29
1966        1069.22        31
1967        1069.65        29
1968        1070.07        27
1969        1070.50        31
1970        1070.92        31
1971        1071.34        25
1972        1071.77        31
1973        1072.19        32
1974        1072.62        29
1975        1073.04        32
1976        1073.46        30
1977        1073.89        34
1978        1074.31        27
1979        1074.74        24
1980        1075.16        26
1981        1075.58        29
1982        1076.01        26
1983        1076.43        25
1984        1076.86        28
1985        1077.28        25
1986        1077.70        24
1987        1078.13        25
1988        1078.55        29
1989        1078.98        20
1990        1079.40        27
1991        1079.83        28
1992        1080.25        26
1993        1080.67        25
1994        1081.10        29
1995        1081.52        26
1996        1081.95        27
1997        1082.37        27
1998        1082.79        28
1999        1083.22        25
2000        1083.64        27
2001        1084.07        30
2002        1084.49        31
2003        1084.92        23
2004        1085.34        31
2005        1085.76        30
2006        1086.19        29
2007        1086.61        27
2008        1087.04        25
2009        1087.46        28
2010        1087.88        30
2011        1088.31        24
2012        1088.73        29
2013        1089.16        34
2014        1089.58        31
2015        1090.01        31
2016        1090.43        27
2017        1090.85        26
2018        1091.28        28
2019        1091.70        29
2020        1092.13        28
2021        1092.55        30
2022        1092.98        26
2023        1093.40        30
2024        1093.82        24
2025        1094.25        30
2026        1094.67        35
2027        1095.10        30
2028        1095.52        31
2029        1095.95        28
2030        1096.37        27
2031        1096.79        34
2032        1097.22        44
2033        1097.64        34
2034        1098.07        31
2035        1098.49        29
2036        1098.92        36
2037        1099.34        29
2038        1099.76        31
2039        1100.19        31
2040        1100.61        31
2041        1101.04        33
2042        1101.46        34
2043        1101.89        35
2044        1102.31        34
2045        1102.74        34
2046        1103.16        33
2047        1103.58        35
2048        1104.01        34


