Project Name : Project Name
Sample Name : Sample Name
Measurement No : 1
Measurement Time : 10/13/2021   10:45:15

Pixel   Wavelength(nm)    Intensity
   1         284.37        46
   2         284.73        43
   3         285.08        47
   4         285.44        45
   5         285.80        40
   6         286.15        42
   7         286.51        45
   8         286.86        45
   9         287.22        46
  10         287.58        49
  11         287.93        43
  12         288.29        46
  13         288.64        44
  14         289.00        42
  15         289.36        50
  16         289.71        46
  17         290.07        47
  18         290.43        44
  19         290.78        42
  20         291.14        37
  21         291.50        43
  22         291.85        50
  23         292.21        44
  24         292.57        51
  25         292.93        47
  26         293.28        45
  27         293.64        48
  28         294.00        48
  29         294.35        48
  30         294.71        48
  31         295.07        47
  32         295.43        47
  33         295.78        54
  34         296.14        46
  35         296.50        51
  36         296.86        44
  37         297.22        53
  38         297.57        48
  39         297.93        53
  40         298.29        47
  41         298.65        46
  42         299.01        46
  43         299.36        49
  44         299.72        45
  45         300.08        48
  46         300.44        47
  47         300.80        49
  48         301.16        47
  49         301.51        46
  50         301.87        46
  51         302.23        51
  52         302.59        44
  53         302.95        52
  54         303.31        43
  55         303.67        52
  56         304.03        48
  57         304.39        48
  58         304.74        45
  59         305.10        47
  60         305.46        53
  61         305.82        45
  62         306.18        49
  63         306.54        43
  64         306.90        45
  65         307.26        47
  66         307.62        51
  67         307.98        47
  68         308.34        49
  69         308.70        45
  70         309.06        45
  71         309.42        48
  72         309.78        47
  73         310.14        49
  74         310.50        48
  75         310.86        40
  76         311.22        47
  77         311.58        46
  78         311.94        44
  79         312.30        43
  80         312.66        39
  81         313.02        49
  82         313.38        48
  83         313.74        44
  84         314.11        43
  85         314.47        50
  86         314.83        55
  87         315.19        47
  88         315.55        47
  89         315.91        45
  90         316.27        44
  91         316.63        52
  92         316.99        44
  93         317.36        42
  94         317.72        42
  95         318.08        42
  96         318.44        41
  97         318.80        44
  98         319.16        41
  99         319.52        46
 100         319.89        41
 101         320.25        48
 102         320.61        53
 103         320.97        44
 104         321.33        42
 105         321.70        38
 106         322.06        44
 107         322.42        44
 108         322.78        48
 109         323.14        46
 110         323.51        38
 111         323.87        44
 112         324.23        50
 113         324.59        44
 114         324.96        41
 115         325.32        39
 116         325.68        52
 117         326.05        45
 118         326.41        43
 119         326.77        43
 120         327.13        39
 121         327.50        38
 122         327.86        41
 123         328.22        45
 124         328.59        46
 125         328.95        41
 126         329.31        41
 127         329.68        42
 128         330.04        43
 129         330.40        44
 130         330.77        41
 131         331.13        39
 132         331.49        41
 133         331.86        43
 134         332.22        42
 135         332.59        39
 136         332.95        37
 137         333.31        42
 138         333.68        38
 139         334.04        43
 140         334.41        44
 141         334.77        42
 142         335.14        43
 143         335.50        46
 144         335.86        42
 145         336.23        41
 146         336.59        44
 147         336.96        42
 148         337.32        38
 149         337.69        43
 150         338.05        43
 151         338.42        46
 152         338.78        34
 153         339.15        45
 154         339.51        47
 155         339.88        39
 156         340.24        46
 157         340.61        43
 158         340.97        42
 159         341.34        39
 160         341.70        38
 161         342.07        40
 162         342.43        35
 163         342.80        40
 164         343.17        42
 165         343.53        42
 166         343.90        42
 167         344.26        41
 168         344.63        40
 169         344.99        44
 170         345.36        46
 171         345.73        43
 172         346.09        41
 173         346.46        38
 174         346.82        42
 175         347.19        42
 176         347.56        46
 177         347.92        43
 178         348.29        45
 179         348.66        41
 180         349.02        39
 181         349.39        46
 182         349.76        45
 183         350.12        38
 184         350.49        45
 185         350.86        41
 186         351.22        42
 187         351.59        44
 188         351.96        47
 189         352.33        44
 190         352.69        42
 191         353.06        43
 192         353.43        51
 193         353.79        46
 194         354.16        49
 195         354.53        49
 196         354.90        47
 197         355.26        42
 198         355.63        47
 199         356.00        46
 200         356.37        45
 201         356.74        44
 202         357.10        47
 203         357.47        43
 204         357.84        45
 205         358.21        48
 206         358.57        47
 207         358.94        45
 208         359.31        51
 209         359.68        46
 210         360.05        46
 211         360.42        44
 212         360.78        46
 213         361.15        48
 214         361.52        47
 215         361.89        49
 216         362.26        48
 217         362.63        51
 218         363.00        47
 219         363.37        47
 220         363.73        47
 221         364.10        47
 222         364.47        46
 223         364.84        49
 224         365.21        51
 225         365.58        50
 226         365.95        51
 227         366.32        51
 228         366.69        50
 229         367.06        45
 230         367.43        51
 231         367.80        52
 232         368.17        51
 233         368.54        48
 234         368.90        47
 235         369.27        46
 236         369.64        51
 237         370.01        48
 238         370.38        51
 239         370.75        47
 240         371.12        51
 241         371.49        40
 242         371.86        45
 243         372.23        46
 244         372.61        48
 245         372.98        46
 246         373.35        46
 247         373.72        54
 248         374.09        56
 249         374.46        43
 250         374.83        47
 251         375.20        44
 252         375.57        44
 253         375.94        50
 254         376.31        52
 255         376.68        48
 256         377.05        49
 257         377.42        46
 258         377.79        44
 259         378.17        45
 260         378.54        46
 261         378.91        44
 262         379.28        48
 263         379.65        47
 264         380.02        48
 265         380.39        47
 266         380.77        47
 267         381.14        49
 268         381.51        43
 269         381.88        40
 270         382.25        43
 271         382.62        45
 272         383.00        51
 273         383.37        41
 274         383.74        45
 275         384.11        47
 276         384.48        46
 277         384.86        42
 278         385.23        41
 279         385.60        46
 280         385.97        44
 281         386.35        44
 282         386.72        46
 283         387.09        48
 284         387.46        43
 285         387.84        43
 286         388.21        48
 287         388.58        57
 288         388.95        43
 289         389.33        45
 290         389.70        47
 291         390.07        45
 292         390.44        42
 293         390.82        40
 294         391.19        44
 295         391.56        38
 296         391.94        38
 297         392.31        39
 298         392.68        38
 299         393.06        39
 300         393.43        47
 301         393.80        43
 302         394.18        44
 303         394.55        47
 304         394.92        43
 305         395.30        36
 306         395.67        44
 307         396.05        39
 308         396.42        46
 309         396.79        40
 310         397.17        44
 311         397.54        44
 312         397.92        41
 313         398.29        42
 314         398.66        41
 315         399.04        47
 316         399.41        43
 317         399.79        40
 318         400.16        39
 319         400.54        43
 320         400.91        44
 321         401.28        45
 322         401.66        41
 323         402.03        45
 324         402.41        41
 325         402.78        42
 326         403.16        45
 327         403.53        43
 328         403.91        48
 329         404.28        39
 330         404.66        40
 331         405.03        43
 332         405.41        47
 333         405.78        39
 334         406.16        40
 335         406.53        43
 336         406.91        44
 337         407.29        47
 338         407.66        38
 339         408.04        41
 340         408.41        40
 341         408.79        40
 342         409.16        49
 343         409.54        47
 344         409.92        45
 345         410.29        38
 346         410.67        44
 347         411.04        40
 348         411.42        40
 349         411.79        37
 350         412.17        34
 351         412.55        43
 352         412.92        41
 353         413.30        47
 354         413.68        41
 355         414.05        42
 356         414.43        43
 357         414.81        44
 358         415.18        40
 359         415.56        36
 360         415.94        43
 361         416.31        43
 362         416.69        39
 363         417.07        45
 364         417.44        35
 365         417.82        39
 366         418.20        44
 367         418.57        37
 368         418.95        36
 369         419.33        40
 370         419.71        42
 371         420.08        46
 372         420.46        44
 373         420.84        46
 374         421.21        43
 375         421.59        41
 376         421.97        45
 377         422.35        52
 378         422.72        41
 379         423.10        47
 380         423.48        42
 381         423.86        44
 382         424.24        39
 383         424.61        46
 384         424.99        45
 385         425.37        43
 386         425.75        42
 387         426.13        45
 388         426.50        49
 389         426.88        41
 390         427.26        45
 391         427.64        44
 392         428.02        43
 393         428.40        42
 394         428.77        38
 395         429.15        44
 396         429.53        43
 397         429.91        41
 398         430.29        44
 399         430.67        50
 400         431.05        41
 401         431.42        46
 402         431.80        49
 403         432.18        46
 404         432.56        44
 405         432.94        42
 406         433.32        48
 407         433.70        40
 408         434.08        41
 409         434.46        42
 410         434.84        46
 411         435.22        46
 412         435.60        40
 413         435.98        45
 414         436.35        47
 415         436.73        40
 416         437.11        44
 417         437.49        43
 418         437.87        45
 419         438.25        45
 420         438.63        45
 421         439.01        48
 422         439.39        43
 423         439.77        47
 424         440.15        45
 425         440.53        43
 426         440.91        42
 427         441.29        45
 428         441.67        45
 429         442.05        39
 430         442.43        42
 431         442.81        48
 432         443.19        48
 433         443.58        43
 434         443.96        49
 435         444.34        46
 436         444.72        48
 437         445.10        44
 438         445.48        42
 439         445.86        47
 440         446.24        43
 441         446.62        38
 442         447.00        47
 443         447.38        47
 444         447.76        44
 445         448.15        46
 446         448.53        44
 447         448.91        45
 448         449.29        41
 449         449.67        46
 450         450.05        47
 451         450.43        48
 452         450.81        50
 453         451.20        47
 454         451.58        34
 455         451.96        46
 456         452.34        45
 457         452.72        48
 458         453.10        43
 459         453.49        37
 460         453.87        43
 461         454.25        41
 462         454.63        39
 463         455.01        39
 464         455.40        41
 465         455.78        46
 466         456.16        43
 467         456.54        42
 468         456.92        44
 469         457.31        42
 470         457.69        44
 471         458.07        43
 472         458.45        42
 473         458.84        46
 474         459.22        47
 475         459.60        48
 476         459.98        50
 477         460.37        42
 478         460.75        43
 479         461.13        47
 480         461.52        50
 481         461.90        42
 482         462.28        49
 483         462.66        44
 484         463.05        43
 485         463.43        47
 486         463.81        51
 487         464.20        42
 488         464.58        43
 489         464.96        45
 490         465.35        44
 491         465.73        43
 492         466.11        43
 493         466.50        43
 494         466.88        43
 495         467.27        47
 496         467.65        40
 497         468.03        42
 498         468.42        46
 499         468.80        50
 500         469.18        46
 501         469.57        42
 502         469.95        43
 503         470.34        46
 504         470.72        44
 505         471.10        47
 506         471.49        47
 507         471.87        47
 508         472.26        49
 509         472.64        48
 510         473.03        56
 511         473.41        59
 512         473.79        59
 513         474.18        59
 514         474.56        70
 515         474.95        72
 516         475.33        73
 517         475.72        78
 518         476.10        89
 519         476.49       100
 520         476.87       108
 521         477.26       126
 522         477.64       129
 523         478.03       151
 524         478.41       164
 525         478.80       182
 526         479.18       203
 527         479.57       222
 528         479.95       255
 529         480.34       278
 530         480.72       309
 531         481.11       342
 532         481.49       371
 533         481.88       392
 534         482.26       427
 535         482.65       458
 536         483.04       495
 537         483.42       533
 538         483.81       568
 539         484.19       612
 540         484.58       633
 541         484.96       671
 542         485.35       709
 543         485.74       758
 544         486.12       760
 545         486.51       803
 546         486.89       857
 547         487.28       855
 548         487.67       874
 549         488.05       913
 550         488.44       953
 551         488.83       983
 552         489.21       975
 553         489.60      1018
 554         489.99      1031
 555         490.37      1025
 556         490.76      1043
 557         491.14      1072
 558         491.53      1092
 559         491.92      1099
 560         492.31      1091
 561         492.69      1119
 562         493.08      1137
 563         493.47      1152
 564         493.85      1134
 565         494.24      1142
 566         494.63      1160
 567         495.01      1153
 568         495.40      1162
 569         495.79      1153
 570         496.18      1168
 571         496.56      1163
 572         496.95      1151
 573         497.34      1158
 574         497.72      1169
 575         498.11      1194
 576         498.50      1197
 577         498.89      1188
 578         499.28      1190
 579         499.66      1214
 580         500.05      1200
 581         500.44      1208
 582         500.83      1234
 583         501.21      1216
 584         501.60      1230
 585         501.99      1253
 586         502.38      1246
 587         502.77      1242
 588         503.15      1246
 589         503.54      1237
 590         503.93      1247
 591         504.32      1264
 592         504.71      1242
 593         505.09      1278
 594         505.48      1265
 595         505.87      1275
 596         506.26      1284
 597         506.65      1300
 598         507.04      1290
 599         507.43      1325
 600         507.81      1304
 601         508.20      1325
 602         508.59      1329
 603         508.98      1338
 604         509.37      1331
 605         509.76      1345
 606         510.15      1361
 607         510.54      1348
 608         510.93      1353
 609         511.31      1353
 610         511.70      1369
 611         512.09      1409
 612         512.48      1395
 613         512.87      1410
 614         513.26      1376
 615         513.65      1402
 616         514.04      1438
 617         514.43      1413
 618         514.82      1453
 619         515.21      1455
 620         515.60      1452
 621         515.99      1460
 622         516.38      1465
 623         516.77      1466
 624         517.16      1485
 625         517.55      1484
 626         517.94      1481
 627         518.33      1486
 628         518.72      1465
 629         519.11      1458
 630         519.50      1477
 631         519.89      1490
 632         520.28      1505
 633         520.67      1503
 634         521.06      1486
 635         521.45      1490
 636         521.84      1494
 637         522.23      1502
 638         522.62      1483
 639         523.01      1500
 640         523.40      1517
 641         523.79      1511
 642         524.18      1494
 643         524.57      1506
 644         524.96      1514
 645         525.35      1498
 646         525.74      1496
 647         526.13      1519
 648         526.52      1493
 649         526.91      1500
 650         527.31      1520
 651         527.70      1528
 652         528.09      1494
 653         528.48      1518
 654         528.87      1519
 655         529.26      1513
 656         529.65      1543
 657         530.04      1536
 658         530.43      1550
 659         530.83      1553
 660         531.22      1549
 661         531.61      1572
 662         532.00      1573
 663         532.39      1594
 664         532.78      1582
 665         533.17      1570
 666         533.57      1564
 667         533.96      1588
 668         534.35      1601
 669         534.74      1592
 670         535.13      1575
 671         535.52      1621
 672         535.92      1594
 673         536.31      1601
 674         536.70      1619
 675         537.09      1615
 676         537.48      1630
 677         537.88      1633
 678         538.27      1635
 679         538.66      1616
 680         539.05      1616
 681         539.45      1595
 682         539.84      1626
 683         540.23      1628
 684         540.62      1625
 685         541.02      1613
 686         541.41      1594
 687         541.80      1609
 688         542.19      1566
 689         542.59      1567
 690         542.98      1556
 691         543.37      1582
 692         543.76      1565
 693         544.16      1565
 694         544.55      1564
 695         544.94      1561
 696         545.34      1571
 697         545.73      1550
 698         546.12      1557
 699         546.51      1561
 700         546.91      1553
 701         547.30      1561
 702         547.69      1548
 703         548.09      1563
 704         548.48      1562
 705         548.87      1539
 706         549.27      1556
 707         549.66      1539
 708         550.05      1541
 709         550.45      1542
 710         550.84      1520
 711         551.24      1516
 712         551.63      1512
 713         552.02      1517
 714         552.42      1529
 715         552.81      1498
 716         553.20      1492
 717         553.60      1494
 718         553.99      1485
 719         554.39      1489
 720         554.78      1480
 721         555.17      1487
 722         555.57      1469
 723         555.96      1450
 724         556.36      1458
 725         556.75      1463
 726         557.14      1418
 727         557.54      1432
 728         557.93      1432
 729         558.33      1420
 730         558.72      1385
 731         559.12      1362
 732         559.51      1336
 733         559.91      1308
 734         560.30      1269
 735         560.69      1210
 736         561.09      1165
 737         561.48      1080
 738         561.88      1046
 739         562.27       964
 740         562.67       915
 741         563.06       855
 742         563.46       824
 743         563.85       785
 744         564.25       764
 745         564.64       748
 746         565.04       756
 747         565.43       778
 748         565.83       812
 749         566.22       841
 750         566.62       914
 751         567.01       933
 752         567.41       994
 753         567.80      1050
 754         568.20      1060
 755         568.60      1066
 756         568.99      1118
 757         569.39      1121
 758         569.78      1134
 759         570.18      1161
 760         570.57      1161
 761         570.97      1146
 762         571.36      1165
 763         571.76      1167
 764         572.16      1195
 765         572.55      1184
 766         572.95      1192
 767         573.34      1176
 768         573.74      1180
 769         574.14      1183
 770         574.53      1186
 771         574.93      1180
 772         575.32      1172
 773         575.72      1155
 774         576.12      1161
 775         576.51      1146
 776         576.91      1119
 777         577.31      1163
 778         577.70      1138
 779         578.10      1124
 780         578.50      1120
 781         578.89      1096
 782         579.29      1113
 783         579.69      1075
 784         580.08      1079
 785         580.48      1089
 786         580.88      1074
 787         581.27      1098
 788         581.67      1073
 789         582.07      1063
 790         582.46      1055
 791         582.86      1059
 792         583.26      1066
 793         583.65      1044
 794         584.05      1052
 795         584.45      1049
 796         584.84      1064
 797         585.24      1041
 798         585.64      1034
 799         586.04      1054
 800         586.43      1051
 801         586.83      1042
 802         587.23      1035
 803         587.63      1028
 804         588.02      1033
 805         588.42      1033
 806         588.82      1041
 807         589.22      1031
 808         589.61      1023
 809         590.01      1039
 810         590.41      1042
 811         590.81      1009
 812         591.20      1011
 813         591.60      1004
 814         592.00       993
 815         592.40      1016
 816         592.80      1006
 817         593.19       975
 818         593.59       996
 819         593.99       966
 820         594.39       971
 821         594.79       950
 822         595.18       950
 823         595.58       956
 824         595.98       944
 825         596.38       929
 826         596.78       925
 827         597.18       925
 828         597.57       907
 829         597.97       895
 830         598.37       930
 831         598.77       902
 832         599.17       883
 833         599.57       871
 834         599.97       890
 835         600.36       860
 836         600.76       864
 837         601.16       842
 838         601.56       860
 839         601.96       855
 840         602.36       835
 841         602.76       826
 842         603.16       828
 843         603.56       821
 844         603.95       810
 845         604.35       826
 846         604.75       795
 847         605.15       807
 848         605.55       813
 849         605.95       797
 850         606.35       797
 851         606.75       799
 852         607.15       770
 853         607.55       793
 854         607.95       766
 855         608.35       774
 856         608.75       772
 857         609.15       773
 858         609.55       746
 859         609.95       741
 860         610.35       738
 861         610.74       748
 862         611.14       722
 863         611.54       734
 864         611.94       722
 865         612.34       693
 866         612.74       714
 867         613.14       703
 868         613.54       685
 869         613.94       676
 870         614.34       679
 871         614.74       667
 872         615.14       670
 873         615.54       661
 874         615.94       633
 875         616.34       634
 876         616.74       628
 877         617.15       635
 878         617.55       616
 879         617.95       610
 880         618.35       612
 881         618.75       584
 882         619.15       590
 883         619.55       577
 884         619.95       565
 885         620.35       573
 886         620.75       561
 887         621.15       558
 888         621.55       538
 889         621.95       540
 890         622.35       541
 891         622.75       523
 892         623.15       526
 893         623.56       518
 894         623.96       529
 895         624.36       504
 896         624.76       506
 897         625.16       496
 898         625.56       501
 899         625.96       499
 900         626.36       486
 901         626.76       484
 902         627.17       478
 903         627.57       485
 904         627.97       467
 905         628.37       459
 906         628.77       465
 907         629.17       483
 908         629.57       463
 909         629.98       452
 910         630.38       454
 911         630.78       442
 912         631.18       442
 913         631.58       438
 914         631.98       415
 915         632.39       434
 916         632.79       418
 917         633.19       419
 918         633.59       417
 919         633.99       410
 920         634.39       414
 921         634.80       407
 922         635.20       396
 923         635.60       395
 924         636.00       414
 925         636.40       407
 926         636.81       387
 927         637.21       387
 928         637.61       376
 929         638.01       376
 930         638.42       378
 931         638.82       358
 932         639.22       354
 933         639.62       365
 934         640.03       364
 935         640.43       358
 936         640.83       354
 937         641.23       349
 938         641.64       342
 939         642.04       337
 940         642.44       339
 941         642.84       336
 942         643.25       328
 943         643.65       321
 944         644.05       316
 945         644.45       308
 946         644.86       318
 947         645.26       315
 948         645.66       309
 949         646.07       310
 950         646.47       307
 951         646.87       288
 952         647.28       299
 953         647.68       297
 954         648.08       289
 955         648.49       283
 956         648.89       287
 957         649.29       282
 958         649.69       280
 959         650.10       273
 960         650.50       284
 961         650.91       276
 962         651.31       271
 963         651.71       273
 964         652.12       262
 965         652.52       263
 966         652.92       273
 967         653.33       264
 968         653.73       256
 969         654.13       266
 970         654.54       262
 971         654.94       256
 972         655.34       248
 973         655.75       265
 974         656.15       260
 975         656.56       249
 976         656.96       250
 977         657.36       257
 978         657.77       254
 979         658.17       245
 980         658.58       235
 981         658.98       244
 982         659.38       240
 983         659.79       244
 984         660.19       237
 985         660.60       239
 986         661.00       247
 987         661.41       235
 988         661.81       230
 989         662.21       234
 990         662.62       234
 991         663.02       239
 992         663.43       241
 993         663.83       216
 994         664.24       211
 995         664.64       219
 996         665.05       210
 997         665.45       218
 998         665.86       209
 999         666.26       211
1000         666.67       212
1001         667.07       206
1002         667.48       204
1003         667.88       199
1004         668.28       204
1005         668.69       187
1006         669.09       180
1007         669.50       186
1008         669.90       180
1009         670.31       175
1010         670.72       179
1011         671.12       179
1012         671.53       183
1013         671.93       177
1014         672.34       179
1015         672.74       170
1016         673.15       176
1017         673.55       163
1018         673.96       166
1019         674.36       164
1020         674.77       160
1021         675.17       164
1022         675.58       158
1023         675.98       158
1024         676.39       151
1025         676.80       152
1026         677.20       145
1027         677.61       150
1028         678.01       142
1029         678.42       143
1030         678.82       147
1031         679.23       147
1032         679.64       144
1033         680.04       137
1034         680.45       140
1035         680.85       137
1036         681.26       139
1037         681.67       131
1038         682.07       133
1039         682.48       133
1040         682.88       130
1041         683.29       134
1042         683.70       136
1043         684.10       134
1044         684.51       131
1045         684.92       131
1046         685.32       127
1047         685.73       127
1048         686.13       127
1049         686.54       123
1050         686.95       129
1051         687.35       118
1052         687.76       118
1053         688.17       118
1054         688.57       112
1055         688.98       112
1056         689.39       109
1057         689.79       111
1058         690.20       116
1059         690.61       115
1060         691.01       111
1061         691.42       111
1062         691.83       117
1063         692.23       114
1064         692.64       108
1065         693.05       101
1066         693.45       102
1067         693.86       103
1068         694.27        98
1069         694.68        98
1070         695.08        96
1071         695.49        98
1072         695.90       102
1073         696.30       100
1074         696.71        91
1075         697.12        94
1076         697.53        90
1077         697.93        94
1078         698.34        94
1079         698.75        92
1080         699.16        90
1081         699.56        90
1082         699.97        91
1083         700.38        89
1084         700.79        88
1085         701.19        84
1086         701.60        83
1087         702.01        84
1088         702.42        81
1089         702.82        86
1090         703.23        85
1091         703.64        82
1092         704.05        79
1093         704.46        77
1094         704.86        76
1095         705.27        79
1096         705.68        83
1097         706.09        77
1098         706.49        81
1099         706.90        91
1100         707.31        73
1101         707.72        80
1102         708.13        80
1103         708.54        69
1104         708.94        77
1105         709.35        77
1106         709.76        75
1107         710.17        75
1108         710.58        77
1109         710.98        73
1110         711.39        67
1111         711.80        69
1112         712.21        71
1113         712.62        72
1114         713.03        74
1115         713.44        75
1116         713.84        73
1117         714.25        70
1118         714.66        68
1119         715.07        69
1120         715.48        69
1121         715.89        71
1122         716.30        63
1123         716.70        68
1124         717.11        69
1125         717.52        65
1126         717.93        64
1127         718.34        66
1128         718.75        65
1129         719.16        64
1130         719.57        71
1131         719.98        72
1132         720.39        69
1133         720.79        67
1134         721.20        67
1135         721.61        57
1136         722.02        69
1137         722.43        59
1138         722.84        66
1139         723.25        55
1140         723.66        63
1141         724.07        62
1142         724.48        69
1143         724.89        59
1144         725.30        57
1145         725.71        64
1146         726.12        69
1147         726.52        56
1148         726.93        62
1149         727.34        53
1150         727.75        58
1151         728.16        60
1152         728.57        61
1153         728.98        50
1154         729.39        61
1155         729.80        60
1156         730.21        60
1157         730.62        53
1158         731.03        53
1159         731.44        57
1160         731.85        62
1161         732.26        58
1162         732.67        55
1163         733.08        61
1164         733.49        61
1165         733.90        63
1166         734.31        59
1167         734.72        55
1168         735.13        57
1169         735.54        57
1170         735.95        58
1171         736.36        58
1172         736.77        58
1173         737.18        59
1174         737.59        58
1175         738.00        55
1176         738.41        53
1177         738.82        60
1178         739.23        55
1179         739.64        54
1180         740.05        58
1181         740.47        50
1182         740.88        58
1183         741.29        51
1184         741.70        62
1185         742.11        56
1186         742.52        58
1187         742.93        58
1188         743.34        52
1189         743.75        54
1190         744.16        52
1191         744.57        51
1192         744.98        57
1193         745.39        58
1194         745.80        51
1195         746.22        53
1196         746.63        58
1197         747.04        52
1198         747.45        51
1199         747.86        53
1200         748.27        51
1201         748.68        50
1202         749.09        54
1203         749.50        50
1204         749.91        53
1205         750.33        56
1206         750.74        54
1207         751.15        56
1208         751.56        52
1209         751.97        52
1210         752.38        51
1211         752.79        53
1212         753.20        52
1213         753.62        49
1214         754.03        51
1215         754.44        50
1216         754.85        55
1217         755.26        49
1218         755.67        55
1219         756.09        53
1220         756.50        57
1221         756.91        49
1222         757.32        50
1223         757.73        49
1224         758.14        47
1225         758.56        46
1226         758.97        51
1227         759.38        45
1228         759.79        45
1229         760.20        49
1230         760.61        49
1231         761.03        43
1232         761.44        51
1233         761.85        50
1234         762.26        50
1235         762.67        48
1236         763.09        49
1237         763.50        47
1238         763.91        40
1239         764.32        52
1240         764.73        43
1241         765.15        49
1242         765.56        44
1243         765.97        46
1244         766.38        49
1245         766.80        45
1246         767.21        48
1247         767.62        42
1248         768.03        45
1249         768.45        45
1250         768.86        42
1251         769.27        46
1252         769.68        40
1253         770.10        47
1254         770.51        51
1255         770.92        37
1256         771.33        35
1257         771.75        40
1258         772.16        50
1259         772.57        47
1260         772.98        39
1261         773.40        41
1262         773.81        45
1263         774.22        50
1264         774.63        42
1265         775.05        47
1266         775.46        42
1267         775.87        43
1268         776.29        40
1269         776.70        40
1270         777.11        43
1271         777.52        46
1272         777.94        42
1273         778.35        49
1274         778.76        36
1275         779.18        44
1276         779.59        43
1277         780.00        43
1278         780.42        38
1279         780.83        44
1280         781.24        38
1281         781.66        38
1282         782.07        46
1283         782.48        42
1284         782.90        43
1285         783.31        34
1286         783.72        36
1287         784.14        33
1288         784.55        33
1289         784.96        40
1290         785.38        42
1291         785.79        36
1292         786.20        43
1293         786.62        41
1294         787.03        38
1295         787.44        37
1296         787.86        37
1297         788.27        42
1298         788.69        42
1299         789.10        38
1300         789.51        38
1301         789.93        37
1302         790.34        37
1303         790.75        41
1304         791.17        37
1305         791.58        44
1306         792.00        42
1307         792.41        37
1308         792.82        39
1309         793.24        37
1310         793.65        41
1311         794.07        37
1312         794.48        42
1313         794.89        39
1314         795.31        42
1315         795.72        39
1316         796.14        41
1317         796.55        42
1318         796.96        39
1319         797.38        39
1320         797.79        36
1321         798.21        43
1322         798.62        42
1323         799.04        42
1324         799.45        45
1325         799.86        44
1326         800.28        39
1327         800.69        38
1328         801.11        36
1329         801.52        42
1330         801.94        46
1331         802.35        42
1332         802.77        39
1333         803.18        47
1334         803.59        46
1335         804.01        40
1336         804.42        48
1337         804.84        43
1338         805.25        43
1339         805.67        41
1340         806.08        37
1341         806.50        43
1342         806.91        41
1343         807.33        39
1344         807.74        38
1345         808.16        47
1346         808.57        43
1347         808.99        42
1348         809.40        40
1349         809.82        40
1350         810.23        47
1351         810.65        43
1352         811.06        45
1353         811.48        43
1354         811.89        42
1355         812.31        43
1356         812.72        44
1357         813.14        48
1358         813.55        43
1359         813.97        39
1360         814.38        40
1361         814.80        47
1362         815.21        46
1363         815.63        44
1364         816.04        48
1365         816.46        47
1366         816.87        51
1367         817.29        51
1368         817.70        45
1369         818.12        46
1370         818.54        43
1371         818.95        47
1372         819.37        42
1373         819.78        48
1374         820.20        45
1375         820.61        48
1376         821.03        42
1377         821.44        51
1378         821.86        49
1379         822.28        43
1380         822.69        44
1381         823.11        47
1382         823.52        50
1383         823.94        52
1384         824.35        50
1385         824.77        46
1386         825.19        50
1387         825.60        43
1388         826.02        44
1389         826.43        41
1390         826.85        49
1391         827.26        49
1392         827.68        42
1393         828.10        47
1394         828.51        48
1395         828.93        43
1396         829.34        49
1397         829.76        48
1398         830.18        42
1399         830.59        45
1400         831.01        45
1401         831.43        43
1402         831.84        46
1403         832.26        37
1404         832.67        46
1405         833.09        40
1406         833.51        43
1407         833.92        43
1408         834.34        43
1409         834.76        46
1410         835.17        45
1411         835.59        44
1412         836.00        44
1413         836.42        48
1414         836.84        45
1415         837.25        40
1416         837.67        43
1417         838.09        40
1418         838.50        42
1419         838.92        43
1420         839.34        43
1421         839.75        45
1422         840.17        42
1423         840.59        36
1424         841.00        43
1425         841.42        41
1426         841.84        47
1427         842.25        35
1428         842.67        43
1429         843.09        41
1430         843.50        38
1431         843.92        41
1432         844.34        42
1433         844.75        39
1434         845.17        46
1435         845.59        41
1436         846.00        42
1437         846.42        33
1438         846.84        44
1439         847.25        47
1440         847.67        39
1441         848.09        32
1442         848.51        34
1443         848.92        38
1444         849.34        37
1445         849.76        29
1446         850.17        38
1447         850.59        40
1448         851.01        36
1449         851.43        40
1450         851.84        36
1451         852.26        39
1452         852.68        37
1453         853.09        33
1454         853.51        36
1455         853.93        33
1456         854.35        36
1457         854.76        35
1458         855.18        35
1459         855.60        34
1460         856.02        37
1461         856.43        35
1462         856.85        35
1463         857.27        27
1464         857.69        36
1465         858.10        30
1466         858.52        38
1467         858.94        32
1468         859.36        37
1469         859.77        37
1470         860.19        39
1471         860.61        33
1472         861.03        37
1473         861.44        31
1474         861.86        34
1475         862.28        34
1476         862.70        34
1477         863.12        34
1478         863.53        34
1479         863.95        37
1480         864.37        34
1481         864.79        39
1482         865.20        43
1483         865.62        31
1484         866.04        35
1485         866.46        32
1486         866.88        38
1487         867.29        33
1488         867.71        30
1489         868.13        35
1490         868.55        33
1491         868.97        38
1492         869.38        39
1493         869.80        36
1494         870.22        32
1495         870.64        40
1496         871.06        34
1497         871.47        30
1498         871.89        36
1499         872.31        33
1500         872.73        30
1501         873.15        38
1502         873.57        30
1503         873.98        33
1504         874.40        43
1505         874.82        32
1506         875.24        35
1507         875.66        33
1508         876.08        33
1509         876.49        37
1510         876.91        30
1511         877.33        36
1512         877.75        36
1513         878.17        32
1514         878.59        32
1515         879.00        36
1516         879.42        29
1517         879.84        30
1518         880.26        33
1519         880.68        34
1520         881.10        41
1521         881.52        37
1522         881.93        37
1523         882.35        36
1524         882.77        35
1525         883.19        36
1526         883.61        39
1527         884.03        38
1528         884.45        37
1529         884.87        31
1530         885.28        39
1531         885.70        41
1532         886.12        32
1533         886.54        39
1534         886.96        29
1535         887.38        31
1536         887.80        43
1537         888.22        38
1538         888.64        42
1539         889.05        32
1540         889.47        39
1541         889.89        37
1542         890.31        40
1543         890.73        36
1544         891.15        38
1545         891.57        37
1546         891.99        34
1547         892.41        40
1548         892.83        41
1549         893.24        34
1550         893.66        37
1551         894.08        37
1552         894.50        42
1553         894.92        41
1554         895.34        40
1555         895.76        37
1556         896.18        38
1557         896.60        39
1558         897.02        39
1559         897.44        36
1560         897.86        36
1561         898.28        44
1562         898.69        46
1563         899.11        40
1564         899.53        35
1565         899.95        37
1566         900.37        38
1567         900.79        44
1568         901.21        38
1569         901.63        42
1570         902.05        36
1571         902.47        42
1572         902.89        38
1573         903.31        44
1574         903.73        41
1575         904.15        39
1576         904.57        40
1577         904.99        48
1578         905.41        67
1579         905.83        42
1580         906.25        41
1581         906.67        43
1582         907.09        37
1583         907.51        43
1584         907.93        38
1585         908.34        38
1586         908.76        41
1587         909.18        37
1588         909.60        44
1589         910.02        47
1590         910.44        38
1591         910.86        39
1592         911.28        38
1593         911.70        42
1594         912.12        41
1595         912.54        42
1596         912.96        38
1597         913.38        37
1598         913.80        40
1599         914.22        37
1600         914.64        39
1601         915.06        37
1602         915.48        39
1603         915.90        42
1604         916.32        42
1605         916.74        46
1606         917.16        36
1607         917.58        43
1608         918.00        39
1609         918.42        40
1610         918.84        42
1611         919.26        41
1612         919.68        41
1613         920.10        42
1614         920.53        38
1615         920.95        34
1616         921.37        41
1617         921.79        37
1618         922.21        40
1619         922.63        38
1620         923.05        39
1621         923.47        43
1622         923.89        39
1623         924.31        36
1624         924.73        41
1625         925.15        43
1626         925.57        39
1627         925.99        40
1628         926.41        39
1629         926.83        36
1630         927.25        39
1631         927.67        40
1632         928.09        44
1633         928.51        37
1634         928.93        32
1635         929.35        35
1636         929.77        30
1637         930.19        42
1638         930.62        34
1639         931.04        36
1640         931.46        35
1641         931.88        36
1642         932.30        35
1643         932.72        40
1644         933.14        37
1645         933.56        34
1646         933.98        35
1647         934.40        41
1648         934.82        42
1649         935.24        41
1650         935.66        38
1651         936.08        40
1652         936.51        36
1653         936.93        40
1654         937.35        34
1655         937.77        32
1656         938.19        35
1657         938.61        37
1658         939.03        34
1659         939.45        39
1660         939.87        37
1661         940.29        40
1662         940.71        30
1663         941.14        37
1664         941.56        36
1665         941.98        35
1666         942.40        36
1667         942.82        35
1668         943.24        39
1669         943.66        35
1670         944.08        33
1671         944.50        35
1672         944.92        35
1673         945.35        37
1674         945.77        33
1675         946.19        35
1676         946.61        35
1677         947.03        36
1678         947.45        33
1679         947.87        39
1680         948.29        32
1681         948.72        36
1682         949.14        35
1683         949.56        38
1684         949.98        34
1685         950.40        38
1686         950.82        34
1687         951.24        35
1688         951.66        32
1689         952.09        42
1690         952.51        34
1691         952.93        30
1692         953.35        35
1693         953.77        38
1694         954.19        42
1695         954.61        33
1696         955.04        32
1697         955.46        40
1698         955.88        32
1699         956.30        39
1700         956.72        36
1701         957.14        34
1702         957.56        42
1703         957.99        35
1704         958.41        32
1705         958.83        38
1706         959.25        34
1707         959.67        35
1708         960.09        36
1709         960.52        38
1710         960.94        34
1711         961.36        34
1712         961.78        46
1713         962.20        33
1714         962.62        31
1715         963.05        44
1716         963.47        36
1717         963.89        37
1718         964.31        40
1719         964.73        40
1720         965.15        35
1721         965.58        35
1722         966.00        41
1723         966.42        39
1724         966.84        39
1725         967.26        39
1726         967.69        39
1727         968.11        41
1728         968.53        40
1729         968.95        39
1730         969.37        40
1731         969.79        41
1732         970.22        42
1733         970.64        38
1734         971.06        37
1735         971.48        44
1736         971.90        39
1737         972.33        43
1738         972.75        36
1739         973.17        42
1740         973.59        40
1741         974.01        40
1742         974.44        42
1743         974.86        43
1744         975.28        47
1745         975.70        41
1746         976.12        45
1747         976.55        40
1748         976.97        40
1749         977.39        43
1750         977.81        42
1751         978.24        43
1752         978.66        50
1753         979.08        44
1754         979.50        43
1755         979.92        40
1756         980.35        39
1757         980.77        44
1758         981.19        42
1759         981.61        42
1760         982.03        40
1761         982.46        41
1762         982.88        43
1763         983.30        39
1764         983.72        46
1765         984.15        42
1766         984.57        41
1767         984.99        41
1768         985.41        48
1769         985.84        45
1770         986.26        39
1771         986.68        44
1772         987.10        45
1773         987.53        39
1774         987.95        43
1775         988.37        40
1776         988.79        40
1777         989.21        43
1778         989.64        46
1779         990.06        49
1780         990.48        44
1781         990.90        45
1782         991.33        40
1783         991.75        48
1784         992.17        40
1785         992.59        41
1786         993.02        43
1787         993.44        41
1788         993.86        39
1789         994.29        42
1790         994.71        38
1791         995.13        47
1792         995.55        38
1793         995.98        45
1794         996.40        46
1795         996.82        37
1796         997.24        44
1797         997.67        38
1798         998.09        41
1799         998.51        38
1800         998.93        36
1801         999.36        39
1802         999.78        34
1803        1000.20        38
1804        1000.63        45
1805        1001.05        39
1806        1001.47        42
1807        1001.89        41
1808        1002.32        41
1809        1002.74        40
1810        1003.16        35
1811        1003.58        40
1812        1004.01        34
1813        1004.43        35
1814        1004.85        36
1815        1005.28        41
1816        1005.70        38
1817        1006.12        38
1818        1006.54        38
1819        1006.97        34
1820        1007.39        42
1821        1007.81        40
1822        1008.24        39
1823        1008.66        36
1824        1009.08        34
1825        1009.50        35
1826        1009.93        41
1827        1010.35        37
1828        1010.77        41
1829        1011.20        34
1830        1011.62        36
1831        1012.04        35
1832        1012.47        38
1833        1012.89        40
1834        1013.31        38
1835        1013.73        39
1836        1014.16        31
1837        1014.58        39
1838        1015.00        36
1839        1015.43        35
1840        1015.85        34
1841        1016.27        37
1842        1016.70        33
1843        1017.12        39
1844        1017.54        36
1845        1017.97        36
1846        1018.39        33
1847        1018.81        34
1848        1019.24        36
1849        1019.66        39
1850        1020.08        36
1851        1020.50        35
1852        1020.93        44
1853        1021.35        39
1854        1021.77        30
1855        1022.20        36
1856        1022.62        36
1857        1023.04        34
1858        1023.47        38
1859        1023.89        39
1860        1024.31        35
1861        1024.74        36
1862        1025.16        36
1863        1025.58        38
1864        1026.01        35
1865        1026.43        39
1866        1026.85        34
1867        1027.28        36
1868        1027.70        40
1869        1028.12        35
1870        1028.55        35
1871        1028.97        35
1872        1029.39        36
1873        1029.82        36
1874        1030.24        34
1875        1030.66        41
1876        1031.09        38
1877        1031.51        41
1878        1031.93        36
1879        1032.36        42
1880        1032.78        37
1881        1033.20        41
1882        1033.63        45
1883        1034.05        36
1884        1034.47        43
1885        1034.90        34
1886        1035.32        41
1887        1035.75        47
1888        1036.17        40
1889        1036.59        46
1890        1037.02        36
1891        1037.44        42
1892        1037.86        40
1893        1038.29        40
1894        1038.71        37
1895        1039.13        40
1896        1039.56        38
1897        1039.98        39
1898        1040.40        34
1899        1040.83        37
1900        1041.25        43
1901        1041.67        47
1902        1042.10        44
1903        1042.52        39
1904        1042.95        47
1905        1043.37        41
1906        1043.79        39
1907        1044.22        45
1908        1044.64        40
1909        1045.06        46
1910        1045.49        46
1911        1045.91        50
1912        1046.33        46
1913        1046.76        37
1914        1047.18        43
1915        1047.61        47
1916        1048.03        50
1917        1048.45        46
1918        1048.88        47
1919        1049.30        45
1920        1049.72        41
1921        1050.15        45
1922        1050.57        41
1923        1051.00        42
1924        1051.42        40
1925        1051.84        53
1926        1052.27        48
1927        1052.69        44
1928        1053.11        43
1929        1053.54        47
1930        1053.96        47
1931        1054.39        39
1932        1054.81        44
1933        1055.23        47
1934        1055.66        45
1935        1056.08        48
1936        1056.51        50
1937        1056.93        53
1938        1057.35        47
1939        1057.78        44
1940        1058.20        47
1941        1058.62        43
1942        1059.05        48
1943        1059.47        51
1944        1059.90        49
1945        1060.32        47
1946        1060.74        49
1947        1061.17        46
1948        1061.59        45
1949        1062.02        47
1950        1062.44        48
1951        1062.86        48
1952        1063.29        49
1953        1063.71        51
1954        1064.14        49
1955        1064.56        47
1956        1064.98        49
1957        1065.41        54
1958        1065.83        49
1959        1066.26        51
1960        1066.68        50
1961        1067.10        49
1962        1067.53        46
1963        1067.95        48
1964        1068.37        51
1965        1068.80        48
1966        1069.22        49
1967        1069.65        46
1968        1070.07        51
1969        1070.50        49
1970        1070.92        48
1971        1071.34        45
1972        1071.77        44
1973        1072.19        51
1974        1072.62        45
1975        1073.04        45
1976        1073.46        45
1977        1073.89        45
1978        1074.31        45
1979        1074.74        47
1980        1075.16        50
1981        1075.58        43
1982        1076.01        49
1983        1076.43        44
1984        1076.86        43
1985        1077.28        43
1986        1077.70        44
1987        1078.13        39
1988        1078.55        45
1989        1078.98        44
1990        1079.40        50
1991        1079.83        52
1992        1080.25        45
1993        1080.67        45
1994        1081.10        46
1995        1081.52        46
1996        1081.95        41
1997        1082.37        43
1998        1082.79        43
1999        1083.22        50
2000        1083.64        44
2001        1084.07        46
2002        1084.49        49
2003        1084.92        48
2004        1085.34        43
2005        1085.76        35
2006        1086.19        47
2007        1086.61        38
2008        1087.04        45
2009        1087.46        36
2010        1087.88        41
2011        1088.31        42
2012        1088.73        45
2013        1089.16        43
2014        1089.58        40
2015        1090.01        34
2016        1090.43        39
2017        1090.85        42
2018        1091.28        39
2019        1091.70        43
2020        1092.13        38
2021        1092.55        38
2022        1092.98        43
2023        1093.40        40
2024        1093.82        37
2025        1094.25        39
2026        1094.67        38
2027        1095.10        43
2028        1095.52        39
2029        1095.95        36
2030        1096.37        38
2031        1096.79        38
2032        1097.22        43
2033        1097.64        32
2034        1098.07        39
2035        1098.49        37
2036        1098.92        35
2037        1099.34        34
2038        1099.76        30
2039        1100.19        33
2040        1100.61        42
2041        1101.04        33
2042        1101.46        36
2043        1101.89        37
2044        1102.31        37
2045        1102.74        37
2046        1103.16        30
2047        1103.58        32
2048        1104.01        35


