Project Name : Project Name
Sample Name : Sample Name
Measurement No : 1
Measurement Time : 10/13/2021   10:46:40

Pixel   Wavelength(nm)    Intensity
   1         284.37        40
   2         284.73        37
   3         285.08        34
   4         285.44        35
   5         285.80        37
   6         286.15        36
   7         286.51        42
   8         286.86        39
   9         287.22        33
  10         287.58        37
  11         287.93        35
  12         288.29        35
  13         288.64        37
  14         289.00        31
  15         289.36        42
  16         289.71        36
  17         290.07        36
  18         290.43        38
  19         290.78        35
  20         291.14        36
  21         291.50        38
  22         291.85        40
  23         292.21        35
  24         292.57        41
  25         292.93        34
  26         293.28        40
  27         293.64        36
  28         294.00        39
  29         294.35        36
  30         294.71        42
  31         295.07        38
  32         295.43        29
  33         295.78        39
  34         296.14        41
  35         296.50        42
  36         296.86        35
  37         297.22        41
  38         297.57        39
  39         297.93        34
  40         298.29        37
  41         298.65        36
  42         299.01        41
  43         299.36        33
  44         299.72        32
  45         300.08        32
  46         300.44        36
  47         300.80        37
  48         301.16        31
  49         301.51        32
  50         301.87        34
  51         302.23        38
  52         302.59        37
  53         302.95        36
  54         303.31        34
  55         303.67        34
  56         304.03        35
  57         304.39        34
  58         304.74        36
  59         305.10        37
  60         305.46        38
  61         305.82        33
  62         306.18        32
  63         306.54        35
  64         306.90        36
  65         307.26        37
  66         307.62        33
  67         307.98        32
  68         308.34        28
  69         308.70        38
  70         309.06        39
  71         309.42        37
  72         309.78        37
  73         310.14        41
  74         310.50        34
  75         310.86        31
  76         311.22        34
  77         311.58        38
  78         311.94        38
  79         312.30        39
  80         312.66        38
  81         313.02        40
  82         313.38        38
  83         313.74        37
  84         314.11        38
  85         314.47        40
  86         314.83        50
  87         315.19        39
  88         315.55        38
  89         315.91        37
  90         316.27        37
  91         316.63        35
  92         316.99        34
  93         317.36        45
  94         317.72        35
  95         318.08        39
  96         318.44        35
  97         318.80        45
  98         319.16        36
  99         319.52        37
 100         319.89        40
 101         320.25        43
 102         320.61        38
 103         320.97        43
 104         321.33        39
 105         321.70        36
 106         322.06        43
 107         322.42        46
 108         322.78        43
 109         323.14        42
 110         323.51        43
 111         323.87        37
 112         324.23        45
 113         324.59        41
 114         324.96        41
 115         325.32        37
 116         325.68        42
 117         326.05        44
 118         326.41        42
 119         326.77        41
 120         327.13        46
 121         327.50        48
 122         327.86        41
 123         328.22        42
 124         328.59        41
 125         328.95        38
 126         329.31        45
 127         329.68        37
 128         330.04        42
 129         330.40        42
 130         330.77        42
 131         331.13        45
 132         331.49        44
 133         331.86        44
 134         332.22        42
 135         332.59        43
 136         332.95        47
 137         333.31        47
 138         333.68        43
 139         334.04        45
 140         334.41        44
 141         334.77        41
 142         335.14        44
 143         335.50        47
 144         335.86        42
 145         336.23        38
 146         336.59        39
 147         336.96        46
 148         337.32        46
 149         337.69        46
 150         338.05        46
 151         338.42        42
 152         338.78        39
 153         339.15        44
 154         339.51        49
 155         339.88        49
 156         340.24        39
 157         340.61        38
 158         340.97        41
 159         341.34        44
 160         341.70        39
 161         342.07        41
 162         342.43        43
 163         342.80        49
 164         343.17        39
 165         343.53        46
 166         343.90        49
 167         344.26        40
 168         344.63        45
 169         344.99        40
 170         345.36        43
 171         345.73        45
 172         346.09        36
 173         346.46        40
 174         346.82        41
 175         347.19        42
 176         347.56        38
 177         347.92        42
 178         348.29        42
 179         348.66        46
 180         349.02        37
 181         349.39        36
 182         349.76        44
 183         350.12        42
 184         350.49        40
 185         350.86        39
 186         351.22        41
 187         351.59        38
 188         351.96        42
 189         352.33        40
 190         352.69        41
 191         353.06        35
 192         353.43        42
 193         353.79        38
 194         354.16        36
 195         354.53        35
 196         354.90        37
 197         355.26        36
 198         355.63        38
 199         356.00        42
 200         356.37        40
 201         356.74        35
 202         357.10        44
 203         357.47        39
 204         357.84        34
 205         358.21        39
 206         358.57        38
 207         358.94        39
 208         359.31        37
 209         359.68        34
 210         360.05        34
 211         360.42        41
 212         360.78        34
 213         361.15        35
 214         361.52        38
 215         361.89        40
 216         362.26        37
 217         362.63        35
 218         363.00        37
 219         363.37        35
 220         363.73        33
 221         364.10        42
 222         364.47        37
 223         364.84        37
 224         365.21        37
 225         365.58        36
 226         365.95        35
 227         366.32        39
 228         366.69        35
 229         367.06        35
 230         367.43        40
 231         367.80        34
 232         368.17        35
 233         368.54        38
 234         368.90        37
 235         369.27        32
 236         369.64        29
 237         370.01        34
 238         370.38        34
 239         370.75        37
 240         371.12        31
 241         371.49        40
 242         371.86        30
 243         372.23        33
 244         372.61        36
 245         372.98        39
 246         373.35        33
 247         373.72        35
 248         374.09        41
 249         374.46        32
 250         374.83        33
 251         375.20        35
 252         375.57        36
 253         375.94        40
 254         376.31        36
 255         376.68        36
 256         377.05        34
 257         377.42        33
 258         377.79        36
 259         378.17        33
 260         378.54        29
 261         378.91        35
 262         379.28        30
 263         379.65        27
 264         380.02        32
 265         380.39        36
 266         380.77        33
 267         381.14        36
 268         381.51        35
 269         381.88        40
 270         382.25        35
 271         382.62        36
 272         383.00        34
 273         383.37        41
 274         383.74        38
 275         384.11        31
 276         384.48        35
 277         384.86        36
 278         385.23        38
 279         385.60        43
 280         385.97        35
 281         386.35        36
 282         386.72        31
 283         387.09        43
 284         387.46        37
 285         387.84        38
 286         388.21        32
 287         388.58        34
 288         388.95        33
 289         389.33        45
 290         389.70        48
 291         390.07        36
 292         390.44        34
 293         390.82        35
 294         391.19        36
 295         391.56        39
 296         391.94        37
 297         392.31        38
 298         392.68        37
 299         393.06        44
 300         393.43        35
 301         393.80        35
 302         394.18        40
 303         394.55        36
 304         394.92        40
 305         395.30        42
 306         395.67        36
 307         396.05        37
 308         396.42        41
 309         396.79        38
 310         397.17        44
 311         397.54        42
 312         397.92        40
 313         398.29        39
 314         398.66        43
 315         399.04        39
 316         399.41        43
 317         399.79        43
 318         400.16        43
 319         400.54        40
 320         400.91        39
 321         401.28        37
 322         401.66        39
 323         402.03        42
 324         402.41        40
 325         402.78        46
 326         403.16        35
 327         403.53        39
 328         403.91        43
 329         404.28        42
 330         404.66        40
 331         405.03        37
 332         405.41        45
 333         405.78        38
 334         406.16        40
 335         406.53        45
 336         406.91        43
 337         407.29        47
 338         407.66        43
 339         408.04        42
 340         408.41        45
 341         408.79        47
 342         409.16        45
 343         409.54        44
 344         409.92        37
 345         410.29        41
 346         410.67        40
 347         411.04        45
 348         411.42        39
 349         411.79        39
 350         412.17        43
 351         412.55        39
 352         412.92        37
 353         413.30        38
 354         413.68        42
 355         414.05        38
 356         414.43        48
 357         414.81        47
 358         415.18        42
 359         415.56        45
 360         415.94        43
 361         416.31        42
 362         416.69        40
 363         417.07        43
 364         417.44        41
 365         417.82        43
 366         418.20        44
 367         418.57        46
 368         418.95        43
 369         419.33        39
 370         419.71        44
 371         420.08        37
 372         420.46        36
 373         420.84        42
 374         421.21        41
 375         421.59        44
 376         421.97        37
 377         422.35        45
 378         422.72        40
 379         423.10        39
 380         423.48        45
 381         423.86        42
 382         424.24        40
 383         424.61        39
 384         424.99        44
 385         425.37        38
 386         425.75        43
 387         426.13        46
 388         426.50        41
 389         426.88        37
 390         427.26        38
 391         427.64        40
 392         428.02        41
 393         428.40        37
 394         428.77        43
 395         429.15        40
 396         429.53        36
 397         429.91        38
 398         430.29        43
 399         430.67        43
 400         431.05        38
 401         431.42        32
 402         431.80        37
 403         432.18        41
 404         432.56        31
 405         432.94        42
 406         433.32        41
 407         433.70        35
 408         434.08        36
 409         434.46        40
 410         434.84        41
 411         435.22        40
 412         435.60        39
 413         435.98        39
 414         436.35        38
 415         436.73        41
 416         437.11        40
 417         437.49        36
 418         437.87        36
 419         438.25        38
 420         438.63        38
 421         439.01        41
 422         439.39        37
 423         439.77        34
 424         440.15        35
 425         440.53        39
 426         440.91        37
 427         441.29        35
 428         441.67        40
 429         442.05        38
 430         442.43        30
 431         442.81        36
 432         443.19        41
 433         443.58        37
 434         443.96        33
 435         444.34        33
 436         444.72        32
 437         445.10        35
 438         445.48        39
 439         445.86        33
 440         446.24        36
 441         446.62        37
 442         447.00        36
 443         447.38        38
 444         447.76        33
 445         448.15        38
 446         448.53        34
 447         448.91        34
 448         449.29        37
 449         449.67        42
 450         450.05        37
 451         450.43        40
 452         450.81        39
 453         451.20        35
 454         451.58        32
 455         451.96        40
 456         452.34        34
 457         452.72        39
 458         453.10        32
 459         453.49        36
 460         453.87        33
 461         454.25        40
 462         454.63        40
 463         455.01        35
 464         455.40        36
 465         455.78        34
 466         456.16        35
 467         456.54        37
 468         456.92        42
 469         457.31        39
 470         457.69        41
 471         458.07        38
 472         458.45        47
 473         458.84        41
 474         459.22        37
 475         459.60        42
 476         459.98        44
 477         460.37        41
 478         460.75        38
 479         461.13        42
 480         461.52        40
 481         461.90        39
 482         462.28        44
 483         462.66        45
 484         463.05        40
 485         463.43        42
 486         463.81        35
 487         464.20        41
 488         464.58        41
 489         464.96        45
 490         465.35        48
 491         465.73        46
 492         466.11        39
 493         466.50        48
 494         466.88        42
 495         467.27        40
 496         467.65        38
 497         468.03        44
 498         468.42        45
 499         468.80        41
 500         469.18        44
 501         469.57        37
 502         469.95        40
 503         470.34        47
 504         470.72        40
 505         471.10        39
 506         471.49        40
 507         471.87        44
 508         472.26        39
 509         472.64        46
 510         473.03        39
 511         473.41        41
 512         473.79        44
 513         474.18        43
 514         474.56        43
 515         474.95        42
 516         475.33        43
 517         475.72        42
 518         476.10        46
 519         476.49        47
 520         476.87        48
 521         477.26        41
 522         477.64        39
 523         478.03        38
 524         478.41        42
 525         478.80        40
 526         479.18        41
 527         479.57        40
 528         479.95        41
 529         480.34        45
 530         480.72        41
 531         481.11        43
 532         481.49        45
 533         481.88        43
 534         482.26        41
 535         482.65        40
 536         483.04        39
 537         483.42        45
 538         483.81        42
 539         484.19        38
 540         484.58        39
 541         484.96        44
 542         485.35        45
 543         485.74        42
 544         486.12        39
 545         486.51        37
 546         486.89        41
 547         487.28        44
 548         487.67        38
 549         488.05        39
 550         488.44        42
 551         488.83        48
 552         489.21        39
 553         489.60        38
 554         489.99        38
 555         490.37        38
 556         490.76        39
 557         491.14        40
 558         491.53        42
 559         491.92        37
 560         492.31        41
 561         492.69        37
 562         493.08        42
 563         493.47        38
 564         493.85        39
 565         494.24        39
 566         494.63        37
 567         495.01        35
 568         495.40        37
 569         495.79        32
 570         496.18        41
 571         496.56        40
 572         496.95        43
 573         497.34        38
 574         497.72        35
 575         498.11        36
 576         498.50        33
 577         498.89        40
 578         499.28        41
 579         499.66        39
 580         500.05        39
 581         500.44        42
 582         500.83        32
 583         501.21        32
 584         501.60        34
 585         501.99        41
 586         502.38        44
 587         502.77        33
 588         503.15        36
 589         503.54        36
 590         503.93        41
 591         504.32        36
 592         504.71        39
 593         505.09        35
 594         505.48        37
 595         505.87        38
 596         506.26        34
 597         506.65        41
 598         507.04        40
 599         507.43        34
 600         507.81        38
 601         508.20        36
 602         508.59        34
 603         508.98        33
 604         509.37        33
 605         509.76        32
 606         510.15        37
 607         510.54        37
 608         510.93        37
 609         511.31        37
 610         511.70        37
 611         512.09        37
 612         512.48        34
 613         512.87        37
 614         513.26        39
 615         513.65        35
 616         514.04        37
 617         514.43        35
 618         514.82        32
 619         515.21        37
 620         515.60        41
 621         515.99        38
 622         516.38        41
 623         516.77        40
 624         517.16        33
 625         517.55        33
 626         517.94        38
 627         518.33        28
 628         518.72        32
 629         519.11        31
 630         519.50        37
 631         519.89        35
 632         520.28        32
 633         520.67        34
 634         521.06        31
 635         521.45        36
 636         521.84        47
 637         522.23        31
 638         522.62        39
 639         523.01        37
 640         523.40        36
 641         523.79        41
 642         524.18        40
 643         524.57        29
 644         524.96        34
 645         525.35        34
 646         525.74        36
 647         526.13        33
 648         526.52        39
 649         526.91        35
 650         527.31        33
 651         527.70        35
 652         528.09        39
 653         528.48        38
 654         528.87        31
 655         529.26        35
 656         529.65        30
 657         530.04        47
 658         530.43        39
 659         530.83        37
 660         531.22        39
 661         531.61        36
 662         532.00        39
 663         532.39        34
 664         532.78        34
 665         533.17        39
 666         533.57        40
 667         533.96        38
 668         534.35        41
 669         534.74        39
 670         535.13        33
 671         535.52        35
 672         535.92        35
 673         536.31        38
 674         536.70        41
 675         537.09        34
 676         537.48        37
 677         537.88        39
 678         538.27        31
 679         538.66        40
 680         539.05        36
 681         539.45        40
 682         539.84        45
 683         540.23        38
 684         540.62        36
 685         541.02        44
 686         541.41        37
 687         541.80        37
 688         542.19        41
 689         542.59        37
 690         542.98        38
 691         543.37        38
 692         543.76        34
 693         544.16        35
 694         544.55        45
 695         544.94        41
 696         545.34        42
 697         545.73        46
 698         546.12        37
 699         546.51        41
 700         546.91        40
 701         547.30        33
 702         547.69        37
 703         548.09        42
 704         548.48        44
 705         548.87        39
 706         549.27        40
 707         549.66        36
 708         550.05        46
 709         550.45        38
 710         550.84        40
 711         551.24        37
 712         551.63        39
 713         552.02        39
 714         552.42        41
 715         552.81        40
 716         553.20        37
 717         553.60        39
 718         553.99        43
 719         554.39        40
 720         554.78        40
 721         555.17        39
 722         555.57        46
 723         555.96        41
 724         556.36        41
 725         556.75        40
 726         557.14        45
 727         557.54        36
 728         557.93        45
 729         558.33        47
 730         558.72        33
 731         559.12        41
 732         559.51        45
 733         559.91        38
 734         560.30        40
 735         560.69        43
 736         561.09        42
 737         561.48        40
 738         561.88        40
 739         562.27        42
 740         562.67        35
 741         563.06        36
 742         563.46        40
 743         563.85        35
 744         564.25        35
 745         564.64        40
 746         565.04        36
 747         565.43        37
 748         565.83        41
 749         566.22        42
 750         566.62        42
 751         567.01        38
 752         567.41        42
 753         567.80        40
 754         568.20        41
 755         568.60        39
 756         568.99        36
 757         569.39        40
 758         569.78        36
 759         570.18        40
 760         570.57        41
 761         570.97        38
 762         571.36        40
 763         571.76        39
 764         572.16        36
 765         572.55        38
 766         572.95        37
 767         573.34        41
 768         573.74        43
 769         574.14        30
 770         574.53        40
 771         574.93        34
 772         575.32        35
 773         575.72        38
 774         576.12        39
 775         576.51        40
 776         576.91        40
 777         577.31        36
 778         577.70        39
 779         578.10        39
 780         578.50        38
 781         578.89        36
 782         579.29        37
 783         579.69        36
 784         580.08        31
 785         580.48        33
 786         580.88        35
 787         581.27        41
 788         581.67        41
 789         582.07        34
 790         582.46        34
 791         582.86        38
 792         583.26        36
 793         583.65        35
 794         584.05        32
 795         584.45        36
 796         584.84        36
 797         585.24        39
 798         585.64        40
 799         586.04        33
 800         586.43        30
 801         586.83        39
 802         587.23        38
 803         587.63        37
 804         588.02        40
 805         588.42        34
 806         588.82        39
 807         589.22        38
 808         589.61        42
 809         590.01        40
 810         590.41        36
 811         590.81        37
 812         591.20        45
 813         591.60        46
 814         592.00        45
 815         592.40        43
 816         592.80        44
 817         593.19        46
 818         593.59        49
 819         593.99        50
 820         594.39        41
 821         594.79        44
 822         595.18        55
 823         595.58        50
 824         595.98        51
 825         596.38        47
 826         596.78        53
 827         597.18        52
 828         597.57        48
 829         597.97        50
 830         598.37        60
 831         598.77        62
 832         599.17        55
 833         599.57        63
 834         599.97        58
 835         600.36        66
 836         600.76        65
 837         601.16        68
 838         601.56        70
 839         601.96        76
 840         602.36        72
 841         602.76        77
 842         603.16        77
 843         603.56        83
 844         603.95        80
 845         604.35        78
 846         604.75        86
 847         605.15        93
 848         605.55        94
 849         605.95        91
 850         606.35        96
 851         606.75       105
 852         607.15       109
 853         607.55       100
 854         607.95       117
 855         608.35       106
 856         608.75       112
 857         609.15       117
 858         609.55       118
 859         609.95       115
 860         610.35       123
 861         610.74       136
 862         611.14       133
 863         611.54       138
 864         611.94       134
 865         612.34       142
 866         612.74       132
 867         613.14       134
 868         613.54       143
 869         613.94       138
 870         614.34       156
 871         614.74       146
 872         615.14       143
 873         615.54       152
 874         615.94       142
 875         616.34       158
 876         616.74       148
 877         617.15       156
 878         617.55       156
 879         617.95       161
 880         618.35       148
 881         618.75       165
 882         619.15       160
 883         619.55       158
 884         619.95       157
 885         620.35       168
 886         620.75       160
 887         621.15       149
 888         621.55       173
 889         621.95       167
 890         622.35       165
 891         622.75       162
 892         623.15       171
 893         623.56       169
 894         623.96       170
 895         624.36       165
 896         624.76       167
 897         625.16       173
 898         625.56       163
 899         625.96       177
 900         626.36       177
 901         626.76       173
 902         627.17       175
 903         627.57       180
 904         627.97       175
 905         628.37       180
 906         628.77       171
 907         629.17       173
 908         629.57       181
 909         629.98       177
 910         630.38       170
 911         630.78       184
 912         631.18       168
 913         631.58       175
 914         631.98       177
 915         632.39       184
 916         632.79       173
 917         633.19       184
 918         633.59       189
 919         633.99       178
 920         634.39       185
 921         634.80       188
 922         635.20       183
 923         635.60       185
 924         636.00       191
 925         636.40       193
 926         636.81       186
 927         637.21       193
 928         637.61       188
 929         638.01       186
 930         638.42       190
 931         638.82       188
 932         639.22       194
 933         639.62       193
 934         640.03       191
 935         640.43       185
 936         640.83       183
 937         641.23       197
 938         641.64       186
 939         642.04       195
 940         642.44       193
 941         642.84       194
 942         643.25       193
 943         643.65       202
 944         644.05       195
 945         644.45       189
 946         644.86       197
 947         645.26       194
 948         645.66       188
 949         646.07       195
 950         646.47       200
 951         646.87       193
 952         647.28       200
 953         647.68       193
 954         648.08       195
 955         648.49       201
 956         648.89       194
 957         649.29       197
 958         649.69       203
 959         650.10       198
 960         650.50       200
 961         650.91       197
 962         651.31       196
 963         651.71       198
 964         652.12       195
 965         652.52       204
 966         652.92       205
 967         653.33       208
 968         653.73       217
 969         654.13       204
 970         654.54       209
 971         654.94       204
 972         655.34       214
 973         655.75       205
 974         656.15       206
 975         656.56       212
 976         656.96       213
 977         657.36       217
 978         657.77       219
 979         658.17       211
 980         658.58       219
 981         658.98       218
 982         659.38       205
 983         659.79       217
 984         660.19       212
 985         660.60       217
 986         661.00       198
 987         661.41       212
 988         661.81       215
 989         662.21       219
 990         662.62       205
 991         663.02       212
 992         663.43       226
 993         663.83       211
 994         664.24       220
 995         664.64       216
 996         665.05       211
 997         665.45       202
 998         665.86       207
 999         666.26       209
1000         666.67       202
1001         667.07       196
1002         667.48       202
1003         667.88       198
1004         668.28       194
1005         668.69       188
1006         669.09       191
1007         669.50       186
1008         669.90       192
1009         670.31       193
1010         670.72       175
1011         671.12       177
1012         671.53       185
1013         671.93       178
1014         672.34       171
1015         672.74       177
1016         673.15       177
1017         673.55       173
1018         673.96       166
1019         674.36       167
1020         674.77       168
1021         675.17       165
1022         675.58       160
1023         675.98       164
1024         676.39       152
1025         676.80       159
1026         677.20       161
1027         677.61       153
1028         678.01       156
1029         678.42       150
1030         678.82       149
1031         679.23       149
1032         679.64       147
1033         680.04       150
1034         680.45       149
1035         680.85       148
1036         681.26       144
1037         681.67       145
1038         682.07       142
1039         682.48       142
1040         682.88       143
1041         683.29       142
1042         683.70       136
1043         684.10       137
1044         684.51       142
1045         684.92       140
1046         685.32       139
1047         685.73       138
1048         686.13       140
1049         686.54       138
1050         686.95       131
1051         687.35       131
1052         687.76       124
1053         688.17       128
1054         688.57       125
1055         688.98       125
1056         689.39       127
1057         689.79       125
1058         690.20       122
1059         690.61       116
1060         691.01       117
1061         691.42       126
1062         691.83       137
1063         692.23       118
1064         692.64       116
1065         693.05       118
1066         693.45       120
1067         693.86       113
1068         694.27       117
1069         694.68       114
1070         695.08       109
1071         695.49       114
1072         695.90       110
1073         696.30       114
1074         696.71       101
1075         697.12        96
1076         697.53       110
1077         697.93       100
1078         698.34       100
1079         698.75        98
1080         699.16        99
1081         699.56       103
1082         699.97       102
1083         700.38       100
1084         700.79        96
1085         701.19       101
1086         701.60        98
1087         702.01        97
1088         702.42       102
1089         702.82       100
1090         703.23        97
1091         703.64        96
1092         704.05        92
1093         704.46        89
1094         704.86        94
1095         705.27        89
1096         705.68        96
1097         706.09       101
1098         706.49        87
1099         706.90       105
1100         707.31        88
1101         707.72        86
1102         708.13        85
1103         708.54        88
1104         708.94        86
1105         709.35        85
1106         709.76        90
1107         710.17        85
1108         710.58        85
1109         710.98        83
1110         711.39        79
1111         711.80        83
1112         712.21        80
1113         712.62        73
1114         713.03        81
1115         713.44        84
1116         713.84        75
1117         714.25        74
1118         714.66        82
1119         715.07        80
1120         715.48        78
1121         715.89        77
1122         716.30        79
1123         716.70        74
1124         717.11        74
1125         717.52        77
1126         717.93        70
1127         718.34        72
1128         718.75        71
1129         719.16        75
1130         719.57        80
1131         719.98        68
1132         720.39        67
1133         720.79        73
1134         721.20        68
1135         721.61        68
1136         722.02        68
1137         722.43        74
1138         722.84        70
1139         723.25        67
1140         723.66        65
1141         724.07        64
1142         724.48        64
1143         724.89        58
1144         725.30        63
1145         725.71        61
1146         726.12        67
1147         726.52        58
1148         726.93        64
1149         727.34        59
1150         727.75        58
1151         728.16        59
1152         728.57        62
1153         728.98        66
1154         729.39        61
1155         729.80        58
1156         730.21        59
1157         730.62        56
1158         731.03        52
1159         731.44        59
1160         731.85        63
1161         732.26        60
1162         732.67        56
1163         733.08        58
1164         733.49        54
1165         733.90        58
1166         734.31        62
1167         734.72        60
1168         735.13        53
1169         735.54        57
1170         735.95        52
1171         736.36        55
1172         736.77        52
1173         737.18        59
1174         737.59        55
1175         738.00        58
1176         738.41        50
1177         738.82        52
1178         739.23        54
1179         739.64        48
1180         740.05        55
1181         740.47        53
1182         740.88        55
1183         741.29        48
1184         741.70        51
1185         742.11        56
1186         742.52        49
1187         742.93        47
1188         743.34        51
1189         743.75        47
1190         744.16        53
1191         744.57        52
1192         744.98        53
1193         745.39        50
1194         745.80        50
1195         746.22        53
1196         746.63        50
1197         747.04        53
1198         747.45        44
1199         747.86        51
1200         748.27        54
1201         748.68        52
1202         749.09        47
1203         749.50        46
1204         749.91        49
1205         750.33        47
1206         750.74        49
1207         751.15        44
1208         751.56        42
1209         751.97        43
1210         752.38        43
1211         752.79        48
1212         753.20        47
1213         753.62        45
1214         754.03        46
1215         754.44        49
1216         754.85        51
1217         755.26        46
1218         755.67        49
1219         756.09        48
1220         756.50        46
1221         756.91        47
1222         757.32        43
1223         757.73        45
1224         758.14        47
1225         758.56        53
1226         758.97        50
1227         759.38        40
1228         759.79        38
1229         760.20        39
1230         760.61        43
1231         761.03        49
1232         761.44        49
1233         761.85        43
1234         762.26        42
1235         762.67        41
1236         763.09        47
1237         763.50        49
1238         763.91        45
1239         764.32        47
1240         764.73        49
1241         765.15        47
1242         765.56        45
1243         765.97        45
1244         766.38        46
1245         766.80        45
1246         767.21        49
1247         767.62        46
1248         768.03        44
1249         768.45        43
1250         768.86        45
1251         769.27        44
1252         769.68        46
1253         770.10        41
1254         770.51        41
1255         770.92        48
1256         771.33        47
1257         771.75        46
1258         772.16        47
1259         772.57        46
1260         772.98        44
1261         773.40        46
1262         773.81        52
1263         774.22        47
1264         774.63        48
1265         775.05        46
1266         775.46        49
1267         775.87        53
1268         776.29        50
1269         776.70        44
1270         777.11        48
1271         777.52        48
1272         777.94        43
1273         778.35        41
1274         778.76        42
1275         779.18        43
1276         779.59        43
1277         780.00        43
1278         780.42        41
1279         780.83        52
1280         781.24        46
1281         781.66        47
1282         782.07        51
1283         782.48        45
1284         782.90        36
1285         783.31        41
1286         783.72        40
1287         784.14        45
1288         784.55        46
1289         784.96        46
1290         785.38        45
1291         785.79        35
1292         786.20        46
1293         786.62        49
1294         787.03        42
1295         787.44        48
1296         787.86        44
1297         788.27        38
1298         788.69        41
1299         789.10        47
1300         789.51        47
1301         789.93        44
1302         790.34        41
1303         790.75        46
1304         791.17        48
1305         791.58        43
1306         792.00        42
1307         792.41        48
1308         792.82        45
1309         793.24        40
1310         793.65        40
1311         794.07        41
1312         794.48        45
1313         794.89        47
1314         795.31        47
1315         795.72        44
1316         796.14        39
1317         796.55        37
1318         796.96        42
1319         797.38        45
1320         797.79        40
1321         798.21        36
1322         798.62        43
1323         799.04        43
1324         799.45        35
1325         799.86        40
1326         800.28        38
1327         800.69        42
1328         801.11        40
1329         801.52        36
1330         801.94        36
1331         802.35        42
1332         802.77        38
1333         803.18        42
1334         803.59        42
1335         804.01        38
1336         804.42        45
1337         804.84        38
1338         805.25        38
1339         805.67        41
1340         806.08        38
1341         806.50        37
1342         806.91        37
1343         807.33        43
1344         807.74        36
1345         808.16        37
1346         808.57        39
1347         808.99        40
1348         809.40        39
1349         809.82        37
1350         810.23        33
1351         810.65        38
1352         811.06        38
1353         811.48        33
1354         811.89        34
1355         812.31        34
1356         812.72        32
1357         813.14        35
1358         813.55        40
1359         813.97        32
1360         814.38        37
1361         814.80        37
1362         815.21        36
1363         815.63        35
1364         816.04        37
1365         816.46        42
1366         816.87        31
1367         817.29        42
1368         817.70        33
1369         818.12        31
1370         818.54        35
1371         818.95        37
1372         819.37        31
1373         819.78        33
1374         820.20        34
1375         820.61        40
1376         821.03        42
1377         821.44        32
1378         821.86        35
1379         822.28        35
1380         822.69        32
1381         823.11        30
1382         823.52        39
1383         823.94        35
1384         824.35        34
1385         824.77        36
1386         825.19        33
1387         825.60        29
1388         826.02        33
1389         826.43        34
1390         826.85        32
1391         827.26        33
1392         827.68        31
1393         828.10        31
1394         828.51        37
1395         828.93        38
1396         829.34        30
1397         829.76        33
1398         830.18        33
1399         830.59        39
1400         831.01        31
1401         831.43        35
1402         831.84        31
1403         832.26        32
1404         832.67        27
1405         833.09        32
1406         833.51        29
1407         833.92        31
1408         834.34        31
1409         834.76        35
1410         835.17        31
1411         835.59        34
1412         836.00        33
1413         836.42        33
1414         836.84        36
1415         837.25        26
1416         837.67        28
1417         838.09        31
1418         838.50        28
1419         838.92        28
1420         839.34        30
1421         839.75        33
1422         840.17        31
1423         840.59        26
1424         841.00        32
1425         841.42        35
1426         841.84        31
1427         842.25        36
1428         842.67        35
1429         843.09        35
1430         843.50        37
1431         843.92        33
1432         844.34        36
1433         844.75        31
1434         845.17        30
1435         845.59        29
1436         846.00        34
1437         846.42        37
1438         846.84        34
1439         847.25        36
1440         847.67        35
1441         848.09        34
1442         848.51        32
1443         848.92        28
1444         849.34        32
1445         849.76        37
1446         850.17        33
1447         850.59        38
1448         851.01        36
1449         851.43        38
1450         851.84        29
1451         852.26        35
1452         852.68        33
1453         853.09        33
1454         853.51        36
1455         853.93        38
1456         854.35        30
1457         854.76        36
1458         855.18        34
1459         855.60        36
1460         856.02        38
1461         856.43        39
1462         856.85        37
1463         857.27        33
1464         857.69        37
1465         858.10        37
1466         858.52        40
1467         858.94        37
1468         859.36        40
1469         859.77        36
1470         860.19        46
1471         860.61        40
1472         861.03        35
1473         861.44        36
1474         861.86        36
1475         862.28        34
1476         862.70        35
1477         863.12        43
1478         863.53        40
1479         863.95        42
1480         864.37        37
1481         864.79        39
1482         865.20        42
1483         865.62        43
1484         866.04        38
1485         866.46        36
1486         866.88        35
1487         867.29        38
1488         867.71        35
1489         868.13        41
1490         868.55        38
1491         868.97        40
1492         869.38        42
1493         869.80        35
1494         870.22        41
1495         870.64        40
1496         871.06        44
1497         871.47        37
1498         871.89        39
1499         872.31        43
1500         872.73        42
1501         873.15        38
1502         873.57        45
1503         873.98        39
1504         874.40        39
1505         874.82        37
1506         875.24        35
1507         875.66        32
1508         876.08        39
1509         876.49        43
1510         876.91        38
1511         877.33        41
1512         877.75        35
1513         878.17        38
1514         878.59        40
1515         879.00        32
1516         879.42        32
1517         879.84        39
1518         880.26        44
1519         880.68        38
1520         881.10        37
1521         881.52        38
1522         881.93        38
1523         882.35        39
1524         882.77        38
1525         883.19        37
1526         883.61        34
1527         884.03        36
1528         884.45        38
1529         884.87        35
1530         885.28        35
1531         885.70        32
1532         886.12        33
1533         886.54        36
1534         886.96        42
1535         887.38        32
1536         887.80        33
1537         888.22        40
1538         888.64        34
1539         889.05        42
1540         889.47        33
1541         889.89        36
1542         890.31        41
1543         890.73        33
1544         891.15        43
1545         891.57        39
1546         891.99        33
1547         892.41        36
1548         892.83        39
1549         893.24        29
1550         893.66        33
1551         894.08        31
1552         894.50        41
1553         894.92        32
1554         895.34        36
1555         895.76        33
1556         896.18        33
1557         896.60        31
1558         897.02        32
1559         897.44        32
1560         897.86        33
1561         898.28        43
1562         898.69        33
1563         899.11        34
1564         899.53        34
1565         899.95        31
1566         900.37        35
1567         900.79        35
1568         901.21        36
1569         901.63        37
1570         902.05        31
1571         902.47        32
1572         902.89        35
1573         903.31        39
1574         903.73        35
1575         904.15        36
1576         904.57        31
1577         904.99        42
1578         905.41        52
1579         905.83        33
1580         906.25        32
1581         906.67        32
1582         907.09        33
1583         907.51        33
1584         907.93        38
1585         908.34        31
1586         908.76        32
1587         909.18        34
1588         909.60        32
1589         910.02        38
1590         910.44        32
1591         910.86        36
1592         911.28        34
1593         911.70        33
1594         912.12        31
1595         912.54        36
1596         912.96        29
1597         913.38        31
1598         913.80        33
1599         914.22        32
1600         914.64        28
1601         915.06        35
1602         915.48        32
1603         915.90        31
1604         916.32        29
1605         916.74        39
1606         917.16        32
1607         917.58        30
1608         918.00        36
1609         918.42        35
1610         918.84        32
1611         919.26        41
1612         919.68        32
1613         920.10        32
1614         920.53        33
1615         920.95        41
1616         921.37        38
1617         921.79        35
1618         922.21        33
1619         922.63        36
1620         923.05        35
1621         923.47        29
1622         923.89        40
1623         924.31        38
1624         924.73        35
1625         925.15        36
1626         925.57        35
1627         925.99        38
1628         926.41        34
1629         926.83        40
1630         927.25        37
1631         927.67        39
1632         928.09        38
1633         928.51        41
1634         928.93        34
1635         929.35        38
1636         929.77        42
1637         930.19        40
1638         930.62        39
1639         931.04        38
1640         931.46        41
1641         931.88        39
1642         932.30        38
1643         932.72        46
1644         933.14        37
1645         933.56        42
1646         933.98        43
1647         934.40        38
1648         934.82        46
1649         935.24        43
1650         935.66        44
1651         936.08        36
1652         936.51        36
1653         936.93        44
1654         937.35        39
1655         937.77        38
1656         938.19        44
1657         938.61        40
1658         939.03        40
1659         939.45        40
1660         939.87        41
1661         940.29        42
1662         940.71        38
1663         941.14        41
1664         941.56        41
1665         941.98        38
1666         942.40        43
1667         942.82        44
1668         943.24        45
1669         943.66        42
1670         944.08        41
1671         944.50        49
1672         944.92        40
1673         945.35        40
1674         945.77        39
1675         946.19        45
1676         946.61        42
1677         947.03        37
1678         947.45        47
1679         947.87        39
1680         948.29        36
1681         948.72        40
1682         949.14        39
1683         949.56        44
1684         949.98        39
1685         950.40        37
1686         950.82        37
1687         951.24        44
1688         951.66        38
1689         952.09        44
1690         952.51        41
1691         952.93        36
1692         953.35        37
1693         953.77        34
1694         954.19        35
1695         954.61        35
1696         955.04        43
1697         955.46        47
1698         955.88        40
1699         956.30        42
1700         956.72        33
1701         957.14        45
1702         957.56        38
1703         957.99        39
1704         958.41        31
1705         958.83        36
1706         959.25        40
1707         959.67        38
1708         960.09        40
1709         960.52        43
1710         960.94        34
1711         961.36        33
1712         961.78        36
1713         962.20        31
1714         962.62        34
1715         963.05        35
1716         963.47        38
1717         963.89        30
1718         964.31        31
1719         964.73        38
1720         965.15        41
1721         965.58        34
1722         966.00        34
1723         966.42        37
1724         966.84        31
1725         967.26        34
1726         967.69        38
1727         968.11        29
1728         968.53        43
1729         968.95        33
1730         969.37        33
1731         969.79        34
1732         970.22        33
1733         970.64        30
1734         971.06        32
1735         971.48        35
1736         971.90        35
1737         972.33        37
1738         972.75        31
1739         973.17        34
1740         973.59        28
1741         974.01        34
1742         974.44        35
1743         974.86        35
1744         975.28        31
1745         975.70        26
1746         976.12        30
1747         976.55        25
1748         976.97        35
1749         977.39        26
1750         977.81        31
1751         978.24        29
1752         978.66        39
1753         979.08        29
1754         979.50        30
1755         979.92        27
1756         980.35        35
1757         980.77        29
1758         981.19        29
1759         981.61        28
1760         982.03        31
1761         982.46        28
1762         982.88        24
1763         983.30        31
1764         983.72        29
1765         984.15        28
1766         984.57        30
1767         984.99        29
1768         985.41        30
1769         985.84        28
1770         986.26        33
1771         986.68        29
1772         987.10        30
1773         987.53        23
1774         987.95        27
1775         988.37        33
1776         988.79        27
1777         989.21        28
1778         989.64        26
1779         990.06        33
1780         990.48        30
1781         990.90        28
1782         991.33        26
1783         991.75        35
1784         992.17        29
1785         992.59        28
1786         993.02        30
1787         993.44        33
1788         993.86        27
1789         994.29        28
1790         994.71        27
1791         995.13        29
1792         995.55        26
1793         995.98        33
1794         996.40        32
1795         996.82        23
1796         997.24        27
1797         997.67        28
1798         998.09        30
1799         998.51        24
1800         998.93        31
1801         999.36        31
1802         999.78        24
1803        1000.20        25
1804        1000.63        35
1805        1001.05        29
1806        1001.47        27
1807        1001.89        30
1808        1002.32        31
1809        1002.74        35
1810        1003.16        32
1811        1003.58        25
1812        1004.01        26
1813        1004.43        31
1814        1004.85        33
1815        1005.28        34
1816        1005.70        31
1817        1006.12        25
1818        1006.54        34
1819        1006.97        31
1820        1007.39        29
1821        1007.81        34
1822        1008.24        33
1823        1008.66        26
1824        1009.08        31
1825        1009.50        38
1826        1009.93        36
1827        1010.35        33
1828        1010.77        35
1829        1011.20        35
1830        1011.62        36
1831        1012.04        30
1832        1012.47        33
1833        1012.89        33
1834        1013.31        32
1835        1013.73        37
1836        1014.16        30
1837        1014.58        33
1838        1015.00        32
1839        1015.43        32
1840        1015.85        35
1841        1016.27        37
1842        1016.70        29
1843        1017.12        32
1844        1017.54        36
1845        1017.97        35
1846        1018.39        39
1847        1018.81        33
1848        1019.24        39
1849        1019.66        33
1850        1020.08        31
1851        1020.50        33
1852        1020.93        34
1853        1021.35        35
1854        1021.77        35
1855        1022.20        36
1856        1022.62        38
1857        1023.04        32
1858        1023.47        32
1859        1023.89        33
1860        1024.31        35
1861        1024.74        30
1862        1025.16        31
1863        1025.58        35
1864        1026.01        36
1865        1026.43        36
1866        1026.85        32
1867        1027.28        34
1868        1027.70        31
1869        1028.12        41
1870        1028.55        34
1871        1028.97        37
1872        1029.39        32
1873        1029.82        31
1874        1030.24        38
1875        1030.66        36
1876        1031.09        30
1877        1031.51        36
1878        1031.93        41
1879        1032.36        32
1880        1032.78        33
1881        1033.20        35
1882        1033.63        32
1883        1034.05        36
1884        1034.47        31
1885        1034.90        30
1886        1035.32        31
1887        1035.75        35
1888        1036.17        33
1889        1036.59        36
1890        1037.02        26
1891        1037.44        31
1892        1037.86        32
1893        1038.29        31
1894        1038.71        27
1895        1039.13        30
1896        1039.56        32
1897        1039.98        34
1898        1040.40        31
1899        1040.83        32
1900        1041.25        31
1901        1041.67        33
1902        1042.10        34
1903        1042.52        27
1904        1042.95        35
1905        1043.37        38
1906        1043.79        29
1907        1044.22        34
1908        1044.64        32
1909        1045.06        31
1910        1045.49        28
1911        1045.91        36
1912        1046.33        31
1913        1046.76        29
1914        1047.18        34
1915        1047.61        34
1916        1048.03        35
1917        1048.45        29
1918        1048.88        28
1919        1049.30        33
1920        1049.72        29
1921        1050.15        32
1922        1050.57        28
1923        1051.00        30
1924        1051.42        23
1925        1051.84        31
1926        1052.27        28
1927        1052.69        30
1928        1053.11        31
1929        1053.54        30
1930        1053.96        30
1931        1054.39        22
1932        1054.81        27
1933        1055.23        25
1934        1055.66        26
1935        1056.08        37
1936        1056.51        30
1937        1056.93        29
1938        1057.35        23
1939        1057.78        23
1940        1058.20        31
1941        1058.62        36
1942        1059.05        28
1943        1059.47        25
1944        1059.90        28
1945        1060.32        29
1946        1060.74        25
1947        1061.17        29
1948        1061.59        24
1949        1062.02        35
1950        1062.44        27
1951        1062.86        27
1952        1063.29        29
1953        1063.71        32
1954        1064.14        32
1955        1064.56        27
1956        1064.98        35
1957        1065.41        26
1958        1065.83        23
1959        1066.26        27
1960        1066.68        19
1961        1067.10        29
1962        1067.53        28
1963        1067.95        29
1964        1068.37        27
1965        1068.80        27
1966        1069.22        28
1967        1069.65        25
1968        1070.07        29
1969        1070.50        25
1970        1070.92        26
1971        1071.34        24
1972        1071.77        26
1973        1072.19        34
1974        1072.62        29
1975        1073.04        28
1976        1073.46        31
1977        1073.89        28
1978        1074.31        29
1979        1074.74        32
1980        1075.16        29
1981        1075.58        29
1982        1076.01        25
1983        1076.43        26
1984        1076.86        26
1985        1077.28        25
1986        1077.70        27
1987        1078.13        29
1988        1078.55        27
1989        1078.98        31
1990        1079.40        37
1991        1079.83        31
1992        1080.25        31
1993        1080.67        28
1994        1081.10        28
1995        1081.52        25
1996        1081.95        27
1997        1082.37        31
1998        1082.79        28
1999        1083.22        34
2000        1083.64        30
2001        1084.07        30
2002        1084.49        32
2003        1084.92        36
2004        1085.34        33
2005        1085.76        36
2006        1086.19        33
2007        1086.61        29
2008        1087.04        34
2009        1087.46        31
2010        1087.88        30
2011        1088.31        33
2012        1088.73        37
2013        1089.16        36
2014        1089.58        30
2015        1090.01        30
2016        1090.43        26
2017        1090.85        34
2018        1091.28        26
2019        1091.70        33
2020        1092.13        34
2021        1092.55        32
2022        1092.98        32
2023        1093.40        30
2024        1093.82        28
2025        1094.25        33
2026        1094.67        35
2027        1095.10        32
2028        1095.52        36
2029        1095.95        34
2030        1096.37        33
2031        1096.79        34
2032        1097.22        40
2033        1097.64        35
2034        1098.07        34
2035        1098.49        32
2036        1098.92        40
2037        1099.34        31
2038        1099.76        37
2039        1100.19        38
2040        1100.61        27
2041        1101.04        31
2042        1101.46        38
2043        1101.89        39
2044        1102.31        35
2045        1102.74        34
2046        1103.16        37
2047        1103.58        40
2048        1104.01        37


