Project Name : Project Name
Sample Name : Sample Name
Measurement No : 1
Measurement Time : 10/13/2021   10:43:23

Pixel   Wavelength(nm)    Intensity
   1         284.37        33
   2         284.73        40
   3         285.08        38
   4         285.44        42
   5         285.80        44
   6         286.15        39
   7         286.51        41
   8         286.86        39
   9         287.22        37
  10         287.58        44
  11         287.93        37
  12         288.29        41
  13         288.64        40
  14         289.00        40
  15         289.36        42
  16         289.71        33
  17         290.07        37
  18         290.43        34
  19         290.78        39
  20         291.14        41
  21         291.50        39
  22         291.85        37
  23         292.21        41
  24         292.57        41
  25         292.93        41
  26         293.28        38
  27         293.64        40
  28         294.00        42
  29         294.35        44
  30         294.71        36
  31         295.07        37
  32         295.43        40
  33         295.78        41
  34         296.14        43
  35         296.50        40
  36         296.86        42
  37         297.22        44
  38         297.57        34
  39         297.93        44
  40         298.29        38
  41         298.65        43
  42         299.01        40
  43         299.36        43
  44         299.72        41
  45         300.08        44
  46         300.44        44
  47         300.80        44
  48         301.16        44
  49         301.51        43
  50         301.87        41
  51         302.23        48
  52         302.59        42
  53         302.95        44
  54         303.31        40
  55         303.67        39
  56         304.03        41
  57         304.39        37
  58         304.74        47
  59         305.10        42
  60         305.46        40
  61         305.82        45
  62         306.18        53
  63         306.54        44
  64         306.90        39
  65         307.26        39
  66         307.62        42
  67         307.98        39
  68         308.34        48
  69         308.70        41
  70         309.06        46
  71         309.42        42
  72         309.78        42
  73         310.14        40
  74         310.50        45
  75         310.86        44
  76         311.22        43
  77         311.58        51
  78         311.94        43
  79         312.30        43
  80         312.66        38
  81         313.02        40
  82         313.38        44
  83         313.74        45
  84         314.11        43
  85         314.47        46
  86         314.83        55
  87         315.19        44
  88         315.55        45
  89         315.91        46
  90         316.27        41
  91         316.63        44
  92         316.99        46
  93         317.36        48
  94         317.72        49
  95         318.08        42
  96         318.44        37
  97         318.80        44
  98         319.16        47
  99         319.52        45
 100         319.89        39
 101         320.25        42
 102         320.61        40
 103         320.97        45
 104         321.33        39
 105         321.70        42
 106         322.06        45
 107         322.42        50
 108         322.78        43
 109         323.14        45
 110         323.51        45
 111         323.87        46
 112         324.23        46
 113         324.59        44
 114         324.96        45
 115         325.32        48
 116         325.68        40
 117         326.05        44
 118         326.41        44
 119         326.77        38
 120         327.13        48
 121         327.50        42
 122         327.86        40
 123         328.22        46
 124         328.59        39
 125         328.95        41
 126         329.31        44
 127         329.68        39
 128         330.04        43
 129         330.40        41
 130         330.77        44
 131         331.13        39
 132         331.49        38
 133         331.86        40
 134         332.22        42
 135         332.59        44
 136         332.95        41
 137         333.31        40
 138         333.68        39
 139         334.04        38
 140         334.41        43
 141         334.77        44
 142         335.14        42
 143         335.50        40
 144         335.86        40
 145         336.23        43
 146         336.59        40
 147         336.96        37
 148         337.32        39
 149         337.69        46
 150         338.05        34
 151         338.42        39
 152         338.78        37
 153         339.15        41
 154         339.51        42
 155         339.88        37
 156         340.24        50
 157         340.61        42
 158         340.97        42
 159         341.34        40
 160         341.70        39
 161         342.07        45
 162         342.43        39
 163         342.80        41
 164         343.17        36
 165         343.53        42
 166         343.90        40
 167         344.26        40
 168         344.63        36
 169         344.99        44
 170         345.36        41
 171         345.73        39
 172         346.09        40
 173         346.46        36
 174         346.82        37
 175         347.19        37
 176         347.56        37
 177         347.92        41
 178         348.29        38
 179         348.66        42
 180         349.02        41
 181         349.39        38
 182         349.76        36
 183         350.12        43
 184         350.49        42
 185         350.86        39
 186         351.22        42
 187         351.59        38
 188         351.96        43
 189         352.33        43
 190         352.69        35
 191         353.06        34
 192         353.43        40
 193         353.79        37
 194         354.16        37
 195         354.53        42
 196         354.90        33
 197         355.26        39
 198         355.63        40
 199         356.00        37
 200         356.37        35
 201         356.74        39
 202         357.10        37
 203         357.47        41
 204         357.84        38
 205         358.21        41
 206         358.57        41
 207         358.94        39
 208         359.31        39
 209         359.68        37
 210         360.05        39
 211         360.42        39
 212         360.78        42
 213         361.15        37
 214         361.52        38
 215         361.89        37
 216         362.26        39
 217         362.63        40
 218         363.00        36
 219         363.37        36
 220         363.73        36
 221         364.10        42
 222         364.47        40
 223         364.84        38
 224         365.21        44
 225         365.58        42
 226         365.95        37
 227         366.32        43
 228         366.69        39
 229         367.06        40
 230         367.43        36
 231         367.80        41
 232         368.17        40
 233         368.54        41
 234         368.90        41
 235         369.27        41
 236         369.64        43
 237         370.01        44
 238         370.38        45
 239         370.75        44
 240         371.12        33
 241         371.49        38
 242         371.86        39
 243         372.23        40
 244         372.61        40
 245         372.98        40
 246         373.35        40
 247         373.72        39
 248         374.09        52
 249         374.46        42
 250         374.83        43
 251         375.20        43
 252         375.57        39
 253         375.94        43
 254         376.31        43
 255         376.68        43
 256         377.05        47
 257         377.42        43
 258         377.79        43
 259         378.17        44
 260         378.54        41
 261         378.91        46
 262         379.28        45
 263         379.65        41
 264         380.02        49
 265         380.39        45
 266         380.77        44
 267         381.14        48
 268         381.51        37
 269         381.88        40
 270         382.25        43
 271         382.62        43
 272         383.00        44
 273         383.37        40
 274         383.74        41
 275         384.11        43
 276         384.48        43
 277         384.86        46
 278         385.23        47
 279         385.60        44
 280         385.97        47
 281         386.35        46
 282         386.72        44
 283         387.09        49
 284         387.46        42
 285         387.84        45
 286         388.21        47
 287         388.58        43
 288         388.95        47
 289         389.33        48
 290         389.70        51
 291         390.07        44
 292         390.44        42
 293         390.82        42
 294         391.19        43
 295         391.56        43
 296         391.94        47
 297         392.31        42
 298         392.68        42
 299         393.06        48
 300         393.43        40
 301         393.80        46
 302         394.18        48
 303         394.55        44
 304         394.92        48
 305         395.30        41
 306         395.67        49
 307         396.05        37
 308         396.42        41
 309         396.79        46
 310         397.17        40
 311         397.54        41
 312         397.92        47
 313         398.29        46
 314         398.66        39
 315         399.04        41
 316         399.41        42
 317         399.79        44
 318         400.16        42
 319         400.54        41
 320         400.91        47
 321         401.28        42
 322         401.66        43
 323         402.03        45
 324         402.41        40
 325         402.78        44
 326         403.16        42
 327         403.53        46
 328         403.91        47
 329         404.28        47
 330         404.66        43
 331         405.03        39
 332         405.41        43
 333         405.78        38
 334         406.16        43
 335         406.53        36
 336         406.91        45
 337         407.29        42
 338         407.66        38
 339         408.04        44
 340         408.41        44
 341         408.79        42
 342         409.16        43
 343         409.54        45
 344         409.92        43
 345         410.29        39
 346         410.67        41
 347         411.04        46
 348         411.42        39
 349         411.79        42
 350         412.17        43
 351         412.55        37
 352         412.92        39
 353         413.30        42
 354         413.68        41
 355         414.05        41
 356         414.43        44
 357         414.81        41
 358         415.18        36
 359         415.56        40
 360         415.94        34
 361         416.31        34
 362         416.69        38
 363         417.07        43
 364         417.44        43
 365         417.82        41
 366         418.20        41
 367         418.57        36
 368         418.95        42
 369         419.33        37
 370         419.71        41
 371         420.08        41
 372         420.46        38
 373         420.84        40
 374         421.21        43
 375         421.59        40
 376         421.97        38
 377         422.35        47
 378         422.72        40
 379         423.10        34
 380         423.48        36
 381         423.86        41
 382         424.24        33
 383         424.61        34
 384         424.99        41
 385         425.37        33
 386         425.75        32
 387         426.13        43
 388         426.50        39
 389         426.88        40
 390         427.26        37
 391         427.64        39
 392         428.02        38
 393         428.40        35
 394         428.77        37
 395         429.15        34
 396         429.53        39
 397         429.91        44
 398         430.29        45
 399         430.67        46
 400         431.05        51
 401         431.42        37
 402         431.80        40
 403         432.18        42
 404         432.56        38
 405         432.94        46
 406         433.32        40
 407         433.70        37
 408         434.08        44
 409         434.46        44
 410         434.84        44
 411         435.22        39
 412         435.60        45
 413         435.98        42
 414         436.35        44
 415         436.73        49
 416         437.11        42
 417         437.49        45
 418         437.87        49
 419         438.25        41
 420         438.63        38
 421         439.01        45
 422         439.39        47
 423         439.77        44
 424         440.15        48
 425         440.53        43
 426         440.91        45
 427         441.29        52
 428         441.67        43
 429         442.05        58
 430         442.43        51
 431         442.81        45
 432         443.19        53
 433         443.58        51
 434         443.96        49
 435         444.34        50
 436         444.72        49
 437         445.10        52
 438         445.48        54
 439         445.86        53
 440         446.24        55
 441         446.62        51
 442         447.00        55
 443         447.38        54
 444         447.76        58
 445         448.15        58
 446         448.53        57
 447         448.91        57
 448         449.29        60
 449         449.67        63
 450         450.05        61
 451         450.43        57
 452         450.81        63
 453         451.20        63
 454         451.58        61
 455         451.96        69
 456         452.34        68
 457         452.72        68
 458         453.10        67
 459         453.49        72
 460         453.87        66
 461         454.25        76
 462         454.63        75
 463         455.01        74
 464         455.40        79
 465         455.78        80
 466         456.16        93
 467         456.54        85
 468         456.92        79
 469         457.31        84
 470         457.69        82
 471         458.07        79
 472         458.45        87
 473         458.84        92
 474         459.22        97
 475         459.60       106
 476         459.98       107
 477         460.37        95
 478         460.75        95
 479         461.13       106
 480         461.52        99
 481         461.90       113
 482         462.28       108
 483         462.66        98
 484         463.05       107
 485         463.43       113
 486         463.81       118
 487         464.20       104
 488         464.58       122
 489         464.96       125
 490         465.35       111
 491         465.73       123
 492         466.11       133
 493         466.50       135
 494         466.88       132
 495         467.27       131
 496         467.65       145
 497         468.03       141
 498         468.42       141
 499         468.80       152
 500         469.18       149
 501         469.57       148
 502         469.95       166
 503         470.34       169
 504         470.72       173
 505         471.10       177
 506         471.49       168
 507         471.87       179
 508         472.26       181
 509         472.64       182
 510         473.03       188
 511         473.41       193
 512         473.79       194
 513         474.18       212
 514         474.56       216
 515         474.95       215
 516         475.33       225
 517         475.72       224
 518         476.10       232
 519         476.49       227
 520         476.87       241
 521         477.26       245
 522         477.64       255
 523         478.03       270
 524         478.41       263
 525         478.80       272
 526         479.18       272
 527         479.57       273
 528         479.95       298
 529         480.34       292
 530         480.72       305
 531         481.11       310
 532         481.49       313
 533         481.88       318
 534         482.26       330
 535         482.65       334
 536         483.04       329
 537         483.42       332
 538         483.81       353
 539         484.19       360
 540         484.58       357
 541         484.96       371
 542         485.35       372
 543         485.74       387
 544         486.12       367
 545         486.51       388
 546         486.89       388
 547         487.28       387
 548         487.67       399
 549         488.05       398
 550         488.44       411
 551         488.83       393
 552         489.21       402
 553         489.60       409
 554         489.99       414
 555         490.37       419
 556         490.76       417
 557         491.14       413
 558         491.53       425
 559         491.92       419
 560         492.31       421
 561         492.69       416
 562         493.08       433
 563         493.47       427
 564         493.85       425
 565         494.24       417
 566         494.63       431
 567         495.01       423
 568         495.40       449
 569         495.79       430
 570         496.18       427
 571         496.56       434
 572         496.95       432
 573         497.34       443
 574         497.72       451
 575         498.11       451
 576         498.50       449
 577         498.89       451
 578         499.28       449
 579         499.66       456
 580         500.05       457
 581         500.44       461
 582         500.83       469
 583         501.21       469
 584         501.60       468
 585         501.99       482
 586         502.38       492
 587         502.77       485
 588         503.15       496
 589         503.54       491
 590         503.93       500
 591         504.32       506
 592         504.71       519
 593         505.09       524
 594         505.48       521
 595         505.87       532
 596         506.26       536
 597         506.65       528
 598         507.04       563
 599         507.43       546
 600         507.81       561
 601         508.20       581
 602         508.59       579
 603         508.98       620
 604         509.37       611
 605         509.76       620
 606         510.15       636
 607         510.54       629
 608         510.93       661
 609         511.31       656
 610         511.70       645
 611         512.09       682
 612         512.48       668
 613         512.87       704
 614         513.26       697
 615         513.65       712
 616         514.04       735
 617         514.43       745
 618         514.82       761
 619         515.21       771
 620         515.60       785
 621         515.99       800
 622         516.38       809
 623         516.77       820
 624         517.16       831
 625         517.55       857
 626         517.94       849
 627         518.33       858
 628         518.72       870
 629         519.11       876
 630         519.50       896
 631         519.89       923
 632         520.28       909
 633         520.67       931
 634         521.06       931
 635         521.45       941
 636         521.84       979
 637         522.23       978
 638         522.62       963
 639         523.01       971
 640         523.40       988
 641         523.79      1000
 642         524.18      1002
 643         524.57      1037
 644         524.96      1042
 645         525.35      1029
 646         525.74      1039
 647         526.13      1046
 648         526.52      1077
 649         526.91      1055
 650         527.31      1064
 651         527.70      1095
 652         528.09      1077
 653         528.48      1094
 654         528.87      1123
 655         529.26      1109
 656         529.65      1138
 657         530.04      1136
 658         530.43      1136
 659         530.83      1181
 660         531.22      1153
 661         531.61      1209
 662         532.00      1184
 663         532.39      1185
 664         532.78      1227
 665         533.17      1211
 666         533.57      1209
 667         533.96      1229
 668         534.35      1209
 669         534.74      1233
 670         535.13      1244
 671         535.52      1241
 672         535.92      1279
 673         536.31      1263
 674         536.70      1271
 675         537.09      1299
 676         537.48      1286
 677         537.88      1303
 678         538.27      1335
 679         538.66      1299
 680         539.05      1316
 681         539.45      1317
 682         539.84      1338
 683         540.23      1341
 684         540.62      1333
 685         541.02      1309
 686         541.41      1335
 687         541.80      1348
 688         542.19      1292
 689         542.59      1307
 690         542.98      1337
 691         543.37      1344
 692         543.76      1359
 693         544.16      1356
 694         544.55      1338
 695         544.94      1377
 696         545.34      1365
 697         545.73      1357
 698         546.12      1403
 699         546.51      1379
 700         546.91      1387
 701         547.30      1398
 702         547.69      1409
 703         548.09      1407
 704         548.48      1436
 705         548.87      1423
 706         549.27      1445
 707         549.66      1444
 708         550.05      1426
 709         550.45      1433
 710         550.84      1444
 711         551.24      1455
 712         551.63      1452
 713         552.02      1469
 714         552.42      1475
 715         552.81      1477
 716         553.20      1472
 717         553.60      1478
 718         553.99      1472
 719         554.39      1497
 720         554.78      1481
 721         555.17      1532
 722         555.57      1514
 723         555.96      1496
 724         556.36      1495
 725         556.75      1491
 726         557.14      1480
 727         557.54      1487
 728         557.93      1480
 729         558.33      1482
 730         558.72      1480
 731         559.12      1464
 732         559.51      1430
 733         559.91      1400
 734         560.30      1338
 735         560.69      1331
 736         561.09      1237
 737         561.48      1183
 738         561.88      1128
 739         562.27      1049
 740         562.67       968
 741         563.06       923
 742         563.46       863
 743         563.85       815
 744         564.25       797
 745         564.64       786
 746         565.04       814
 747         565.43       846
 748         565.83       890
 749         566.22       931
 750         566.62       996
 751         567.01      1063
 752         567.41      1105
 753         567.80      1167
 754         568.20      1192
 755         568.60      1224
 756         568.99      1275
 757         569.39      1310
 758         569.78      1295
 759         570.18      1330
 760         570.57      1341
 761         570.97      1322
 762         571.36      1346
 763         571.76      1378
 764         572.16      1359
 765         572.55      1370
 766         572.95      1372
 767         573.34      1344
 768         573.74      1346
 769         574.14      1366
 770         574.53      1355
 771         574.93      1366
 772         575.32      1363
 773         575.72      1314
 774         576.12      1331
 775         576.51      1341
 776         576.91      1310
 777         577.31      1294
 778         577.70      1332
 779         578.10      1300
 780         578.50      1274
 781         578.89      1296
 782         579.29      1275
 783         579.69      1267
 784         580.08      1262
 785         580.48      1279
 786         580.88      1218
 787         581.27      1248
 788         581.67      1244
 789         582.07      1231
 790         582.46      1195
 791         582.86      1232
 792         583.26      1210
 793         583.65      1213
 794         584.05      1222
 795         584.45      1209
 796         584.84      1222
 797         585.24      1223
 798         585.64      1204
 799         586.04      1204
 800         586.43      1226
 801         586.83      1210
 802         587.23      1203
 803         587.63      1199
 804         588.02      1215
 805         588.42      1209
 806         588.82      1190
 807         589.22      1207
 808         589.61      1198
 809         590.01      1182
 810         590.41      1209
 811         590.81      1188
 812         591.20      1174
 813         591.60      1169
 814         592.00      1186
 815         592.40      1174
 816         592.80      1160
 817         593.19      1134
 818         593.59      1151
 819         593.99      1121
 820         594.39      1109
 821         594.79      1105
 822         595.18      1116
 823         595.58      1125
 824         595.98      1089
 825         596.38      1106
 826         596.78      1074
 827         597.18      1070
 828         597.57      1055
 829         597.97      1051
 830         598.37      1051
 831         598.77      1044
 832         599.17      1034
 833         599.57      1023
 834         599.97      1011
 835         600.36      1001
 836         600.76      1004
 837         601.16       991
 838         601.56       985
 839         601.96       983
 840         602.36       972
 841         602.76       964
 842         603.16       949
 843         603.56       952
 844         603.95       957
 845         604.35       954
 846         604.75       935
 847         605.15       924
 848         605.55       925
 849         605.95       929
 850         606.35       910
 851         606.75       917
 852         607.15       907
 853         607.55       894
 854         607.95       903
 855         608.35       893
 856         608.75       883
 857         609.15       870
 858         609.55       867
 859         609.95       873
 860         610.35       858
 861         610.74       860
 862         611.14       859
 863         611.54       846
 864         611.94       825
 865         612.34       816
 866         612.74       825
 867         613.14       810
 868         613.54       788
 869         613.94       779
 870         614.34       783
 871         614.74       765
 872         615.14       752
 873         615.54       763
 874         615.94       744
 875         616.34       737
 876         616.74       726
 877         617.15       731
 878         617.55       712
 879         617.95       690
 880         618.35       701
 881         618.75       681
 882         619.15       668
 883         619.55       664
 884         619.95       660
 885         620.35       663
 886         620.75       637
 887         621.15       632
 888         621.55       621
 889         621.95       631
 890         622.35       599
 891         622.75       612
 892         623.15       618
 893         623.56       598
 894         623.96       577
 895         624.36       582
 896         624.76       593
 897         625.16       589
 898         625.56       578
 899         625.96       592
 900         626.36       561
 901         626.76       559
 902         627.17       564
 903         627.57       555
 904         627.97       552
 905         628.37       546
 906         628.77       548
 907         629.17       538
 908         629.57       539
 909         629.98       532
 910         630.38       526
 911         630.78       524
 912         631.18       509
 913         631.58       510
 914         631.98       513
 915         632.39       509
 916         632.79       495
 917         633.19       512
 918         633.59       490
 919         633.99       493
 920         634.39       487
 921         634.80       495
 922         635.20       471
 923         635.60       452
 924         636.00       480
 925         636.40       471
 926         636.81       445
 927         637.21       454
 928         637.61       449
 929         638.01       441
 930         638.42       429
 931         638.82       435
 932         639.22       433
 933         639.62       424
 934         640.03       422
 935         640.43       416
 936         640.83       418
 937         641.23       405
 938         641.64       401
 939         642.04       407
 940         642.44       398
 941         642.84       381
 942         643.25       368
 943         643.65       375
 944         644.05       376
 945         644.45       368
 946         644.86       359
 947         645.26       362
 948         645.66       358
 949         646.07       351
 950         646.47       337
 951         646.87       338
 952         647.28       347
 953         647.68       343
 954         648.08       334
 955         648.49       339
 956         648.89       338
 957         649.29       317
 958         649.69       319
 959         650.10       320
 960         650.50       318
 961         650.91       305
 962         651.31       304
 963         651.71       317
 964         652.12       315
 965         652.52       303
 966         652.92       297
 967         653.33       298
 968         653.73       310
 969         654.13       290
 970         654.54       292
 971         654.94       287
 972         655.34       289
 973         655.75       283
 974         656.15       290
 975         656.56       277
 976         656.96       284
 977         657.36       285
 978         657.77       273
 979         658.17       279
 980         658.58       278
 981         658.98       269
 982         659.38       267
 983         659.79       264
 984         660.19       283
 985         660.60       271
 986         661.00       272
 987         661.41       267
 988         661.81       270
 989         662.21       254
 990         662.62       254
 991         663.02       254
 992         663.43       262
 993         663.83       256
 994         664.24       242
 995         664.64       253
 996         665.05       240
 997         665.45       236
 998         665.86       242
 999         666.26       224
1000         666.67       228
1001         667.07       233
1002         667.48       227
1003         667.88       224
1004         668.28       227
1005         668.69       217
1006         669.09       206
1007         669.50       208
1008         669.90       202
1009         670.31       199
1010         670.72       200
1011         671.12       197
1012         671.53       195
1013         671.93       188
1014         672.34       186
1015         672.74       189
1016         673.15       195
1017         673.55       182
1018         673.96       178
1019         674.36       173
1020         674.77       174
1021         675.17       174
1022         675.58       172
1023         675.98       173
1024         676.39       172
1025         676.80       167
1026         677.20       169
1027         677.61       162
1028         678.01       167
1029         678.42       161
1030         678.82       163
1031         679.23       161
1032         679.64       158
1033         680.04       159
1034         680.45       157
1035         680.85       147
1036         681.26       151
1037         681.67       160
1038         682.07       153
1039         682.48       146
1040         682.88       140
1041         683.29       146
1042         683.70       147
1043         684.10       146
1044         684.51       148
1045         684.92       147
1046         685.32       141
1047         685.73       140
1048         686.13       140
1049         686.54       137
1050         686.95       130
1051         687.35       129
1052         687.76       134
1053         688.17       132
1054         688.57       128
1055         688.98       125
1056         689.39       127
1057         689.79       126
1058         690.20       120
1059         690.61       118
1060         691.01       126
1061         691.42       115
1062         691.83       123
1063         692.23       112
1064         692.64       113
1065         693.05       118
1066         693.45       113
1067         693.86       112
1068         694.27       111
1069         694.68       111
1070         695.08       105
1071         695.49       105
1072         695.90       113
1073         696.30       106
1074         696.71       110
1075         697.12       108
1076         697.53       105
1077         697.93       102
1078         698.34       101
1079         698.75       101
1080         699.16        93
1081         699.56       110
1082         699.97       100
1083         700.38        98
1084         700.79       100
1085         701.19        93
1086         701.60        90
1087         702.01        91
1088         702.42        99
1089         702.82        86
1090         703.23        93
1091         703.64        91
1092         704.05        86
1093         704.46        89
1094         704.86        87
1095         705.27        91
1096         705.68        83
1097         706.09        84
1098         706.49        90
1099         706.90        98
1100         707.31        84
1101         707.72        87
1102         708.13        83
1103         708.54        73
1104         708.94        79
1105         709.35        78
1106         709.76        83
1107         710.17        81
1108         710.58        77
1109         710.98        79
1110         711.39        80
1111         711.80        77
1112         712.21        71
1113         712.62        73
1114         713.03        76
1115         713.44        78
1116         713.84        74
1117         714.25        72
1118         714.66        72
1119         715.07        66
1120         715.48        74
1121         715.89        74
1122         716.30        79
1123         716.70        67
1124         717.11        68
1125         717.52        63
1126         717.93        65
1127         718.34        69
1128         718.75        66
1129         719.16        68
1130         719.57        69
1131         719.98        63
1132         720.39        64
1133         720.79        62
1134         721.20        57
1135         721.61        67
1136         722.02        72
1137         722.43        60
1138         722.84        62
1139         723.25        57
1140         723.66        63
1141         724.07        64
1142         724.48        63
1143         724.89        66
1144         725.30        55
1145         725.71        58
1146         726.12        59
1147         726.52        54
1148         726.93        56
1149         727.34        60
1150         727.75        62
1151         728.16        54
1152         728.57        57
1153         728.98        61
1154         729.39        58
1155         729.80        63
1156         730.21        56
1157         730.62        55
1158         731.03        57
1159         731.44        52
1160         731.85        60
1161         732.26        57
1162         732.67        50
1163         733.08        49
1164         733.49        53
1165         733.90        50
1166         734.31        56
1167         734.72        52
1168         735.13        50
1169         735.54        53
1170         735.95        51
1171         736.36        50
1172         736.77        51
1173         737.18        55
1174         737.59        50
1175         738.00        53
1176         738.41        53
1177         738.82        55
1178         739.23        56
1179         739.64        51
1180         740.05        53
1181         740.47        50
1182         740.88        50
1183         741.29        53
1184         741.70        52
1185         742.11        47
1186         742.52        53
1187         742.93        48
1188         743.34        56
1189         743.75        48
1190         744.16        44
1191         744.57        45
1192         744.98        48
1193         745.39        50
1194         745.80        50
1195         746.22        53
1196         746.63        49
1197         747.04        49
1198         747.45        56
1199         747.86        54
1200         748.27        47
1201         748.68        46
1202         749.09        50
1203         749.50        45
1204         749.91        47
1205         750.33        48
1206         750.74        45
1207         751.15        53
1208         751.56        50
1209         751.97        47
1210         752.38        48
1211         752.79        44
1212         753.20        44
1213         753.62        53
1214         754.03        46
1215         754.44        47
1216         754.85        51
1217         755.26        53
1218         755.67        50
1219         756.09        51
1220         756.50        46
1221         756.91        47
1222         757.32        50
1223         757.73        53
1224         758.14        44
1225         758.56        44
1226         758.97        55
1227         759.38        51
1228         759.79        45
1229         760.20        50
1230         760.61        49
1231         761.03        43
1232         761.44        47
1233         761.85        46
1234         762.26        47
1235         762.67        46
1236         763.09        45
1237         763.50        43
1238         763.91        45
1239         764.32        50
1240         764.73        49
1241         765.15        49
1242         765.56        46
1243         765.97        51
1244         766.38        45
1245         766.80        54
1246         767.21        48
1247         767.62        45
1248         768.03        48
1249         768.45        37
1250         768.86        45
1251         769.27        44
1252         769.68        49
1253         770.10        47
1254         770.51        43
1255         770.92        47
1256         771.33        43
1257         771.75        42
1258         772.16        53
1259         772.57        41
1260         772.98        47
1261         773.40        46
1262         773.81        42
1263         774.22        47
1264         774.63        46
1265         775.05        45
1266         775.46        44
1267         775.87        49
1268         776.29        39
1269         776.70        47
1270         777.11        46
1271         777.52        47
1272         777.94        38
1273         778.35        36
1274         778.76        42
1275         779.18        41
1276         779.59        41
1277         780.00        40
1278         780.42        45
1279         780.83        41
1280         781.24        43
1281         781.66        40
1282         782.07        42
1283         782.48        41
1284         782.90        40
1285         783.31        43
1286         783.72        44
1287         784.14        37
1288         784.55        39
1289         784.96        40
1290         785.38        39
1291         785.79        42
1292         786.20        38
1293         786.62        38
1294         787.03        38
1295         787.44        39
1296         787.86        43
1297         788.27        42
1298         788.69        41
1299         789.10        37
1300         789.51        38
1301         789.93        33
1302         790.34        38
1303         790.75        38
1304         791.17        43
1305         791.58        44
1306         792.00        42
1307         792.41        42
1308         792.82        41
1309         793.24        38
1310         793.65        37
1311         794.07        40
1312         794.48        42
1313         794.89        46
1314         795.31        37
1315         795.72        40
1316         796.14        40
1317         796.55        37
1318         796.96        39
1319         797.38        38
1320         797.79        37
1321         798.21        38
1322         798.62        41
1323         799.04        43
1324         799.45        34
1325         799.86        38
1326         800.28        36
1327         800.69        36
1328         801.11        37
1329         801.52        33
1330         801.94        39
1331         802.35        39
1332         802.77        33
1333         803.18        36
1334         803.59        44
1335         804.01        37
1336         804.42        42
1337         804.84        41
1338         805.25        34
1339         805.67        33
1340         806.08        30
1341         806.50        34
1342         806.91        31
1343         807.33        39
1344         807.74        36
1345         808.16        34
1346         808.57        34
1347         808.99        34
1348         809.40        32
1349         809.82        37
1350         810.23        34
1351         810.65        31
1352         811.06        33
1353         811.48        38
1354         811.89        35
1355         812.31        33
1356         812.72        31
1357         813.14        35
1358         813.55        28
1359         813.97        37
1360         814.38        30
1361         814.80        36
1362         815.21        28
1363         815.63        38
1364         816.04        34
1365         816.46        36
1366         816.87        33
1367         817.29        31
1368         817.70        40
1369         818.12        33
1370         818.54        38
1371         818.95        42
1372         819.37        33
1373         819.78        40
1374         820.20        34
1375         820.61        41
1376         821.03        37
1377         821.44        35
1378         821.86        42
1379         822.28        35
1380         822.69        37
1381         823.11        37
1382         823.52        37
1383         823.94        43
1384         824.35        37
1385         824.77        38
1386         825.19        40
1387         825.60        36
1388         826.02        40
1389         826.43        40
1390         826.85        35
1391         827.26        38
1392         827.68        39
1393         828.10        38
1394         828.51        35
1395         828.93        39
1396         829.34        39
1397         829.76        40
1398         830.18        37
1399         830.59        41
1400         831.01        41
1401         831.43        41
1402         831.84        39
1403         832.26        42
1404         832.67        40
1405         833.09        39
1406         833.51        42
1407         833.92        42
1408         834.34        37
1409         834.76        43
1410         835.17        41
1411         835.59        38
1412         836.00        42
1413         836.42        39
1414         836.84        42
1415         837.25        41
1416         837.67        46
1417         838.09        38
1418         838.50        41
1419         838.92        38
1420         839.34        44
1421         839.75        39
1422         840.17        37
1423         840.59        37
1424         841.00        46
1425         841.42        39
1426         841.84        38
1427         842.25        38
1428         842.67        41
1429         843.09        42
1430         843.50        44
1431         843.92        37
1432         844.34        44
1433         844.75        37
1434         845.17        40
1435         845.59        42
1436         846.00        38
1437         846.42        40
1438         846.84        40
1439         847.25        38
1440         847.67        30
1441         848.09        38
1442         848.51        42
1443         848.92        40
1444         849.34        33
1445         849.76        39
1446         850.17        39
1447         850.59        38
1448         851.01        41
1449         851.43        36
1450         851.84        36
1451         852.26        37
1452         852.68        38
1453         853.09        36
1454         853.51        37
1455         853.93        39
1456         854.35        34
1457         854.76        40
1458         855.18        35
1459         855.60        37
1460         856.02        37
1461         856.43        37
1462         856.85        36
1463         857.27        31
1464         857.69        38
1465         858.10        38
1466         858.52        37
1467         858.94        42
1468         859.36        38
1469         859.77        34
1470         860.19        40
1471         860.61        31
1472         861.03        32
1473         861.44        38
1474         861.86        31
1475         862.28        35
1476         862.70        37
1477         863.12        30
1478         863.53        35
1479         863.95        29
1480         864.37        34
1481         864.79        41
1482         865.20        32
1483         865.62        36
1484         866.04        32
1485         866.46        38
1486         866.88        40
1487         867.29        34
1488         867.71        36
1489         868.13        34
1490         868.55        35
1491         868.97        42
1492         869.38        38
1493         869.80        30
1494         870.22        32
1495         870.64        38
1496         871.06        32
1497         871.47        35
1498         871.89        35
1499         872.31        33
1500         872.73        28
1501         873.15        28
1502         873.57        34
1503         873.98        33
1504         874.40        32
1505         874.82        31
1506         875.24        32
1507         875.66        33
1508         876.08        28
1509         876.49        37
1510         876.91        32
1511         877.33        28
1512         877.75        34
1513         878.17        29
1514         878.59        33
1515         879.00        38
1516         879.42        38
1517         879.84        29
1518         880.26        30
1519         880.68        30
1520         881.10        36
1521         881.52        34
1522         881.93        34
1523         882.35        28
1524         882.77        33
1525         883.19        31
1526         883.61        32
1527         884.03        32
1528         884.45        30
1529         884.87        30
1530         885.28        32
1531         885.70        32
1532         886.12        33
1533         886.54        30
1534         886.96        31
1535         887.38        33
1536         887.80        30
1537         888.22        31
1538         888.64        26
1539         889.05        31
1540         889.47        29
1541         889.89        31
1542         890.31        32
1543         890.73        28
1544         891.15        26
1545         891.57        33
1546         891.99        27
1547         892.41        30
1548         892.83        28
1549         893.24        33
1550         893.66        35
1551         894.08        28
1552         894.50        32
1553         894.92        31
1554         895.34        32
1555         895.76        32
1556         896.18        30
1557         896.60        31
1558         897.02        36
1559         897.44        30
1560         897.86        33
1561         898.28        31
1562         898.69        36
1563         899.11        37
1564         899.53        34
1565         899.95        34
1566         900.37        33
1567         900.79        38
1568         901.21        32
1569         901.63        35
1570         902.05        37
1571         902.47        36
1572         902.89        42
1573         903.31        41
1574         903.73        27
1575         904.15        35
1576         904.57        33
1577         904.99        45
1578         905.41        80
1579         905.83        37
1580         906.25        31
1581         906.67        40
1582         907.09        34
1583         907.51        34
1584         907.93        39
1585         908.34        34
1586         908.76        36
1587         909.18        41
1588         909.60        36
1589         910.02        32
1590         910.44        32
1591         910.86        39
1592         911.28        40
1593         911.70        38
1594         912.12        33
1595         912.54        35
1596         912.96        40
1597         913.38        35
1598         913.80        40
1599         914.22        34
1600         914.64        39
1601         915.06        41
1602         915.48        41
1603         915.90        36
1604         916.32        37
1605         916.74        37
1606         917.16        40
1607         917.58        41
1608         918.00        42
1609         918.42        41
1610         918.84        36
1611         919.26        39
1612         919.68        43
1613         920.10        38
1614         920.53        38
1615         920.95        36
1616         921.37        40
1617         921.79        34
1618         922.21        33
1619         922.63        36
1620         923.05        40
1621         923.47        37
1622         923.89        37
1623         924.31        41
1624         924.73        38
1625         925.15        35
1626         925.57        42
1627         925.99        33
1628         926.41        36
1629         926.83        35
1630         927.25        36
1631         927.67        34
1632         928.09        42
1633         928.51        38
1634         928.93        41
1635         929.35        38
1636         929.77        40
1637         930.19        41
1638         930.62        44
1639         931.04        35
1640         931.46        35
1641         931.88        32
1642         932.30        31
1643         932.72        41
1644         933.14        38
1645         933.56        37
1646         933.98        35
1647         934.40        36
1648         934.82        36
1649         935.24        40
1650         935.66        42
1651         936.08        41
1652         936.51        42
1653         936.93        38
1654         937.35        38
1655         937.77        34
1656         938.19        36
1657         938.61        33
1658         939.03        43
1659         939.45        41
1660         939.87        39
1661         940.29        34
1662         940.71        42
1663         941.14        35
1664         941.56        37
1665         941.98        42
1666         942.40        36
1667         942.82        41
1668         943.24        42
1669         943.66        35
1670         944.08        34
1671         944.50        35
1672         944.92        39
1673         945.35        34
1674         945.77        34
1675         946.19        39
1676         946.61        34
1677         947.03        36
1678         947.45        39
1679         947.87        40
1680         948.29        35
1681         948.72        38
1682         949.14        40
1683         949.56        40
1684         949.98        33
1685         950.40        38
1686         950.82        39
1687         951.24        41
1688         951.66        38
1689         952.09        31
1690         952.51        37
1691         952.93        32
1692         953.35        36
1693         953.77        38
1694         954.19        40
1695         954.61        38
1696         955.04        37
1697         955.46        41
1698         955.88        37
1699         956.30        41
1700         956.72        38
1701         957.14        33
1702         957.56        39
1703         957.99        33
1704         958.41        35
1705         958.83        33
1706         959.25        33
1707         959.67        33
1708         960.09        32
1709         960.52        31
1710         960.94        33
1711         961.36        35
1712         961.78        37
1713         962.20        37
1714         962.62        37
1715         963.05        36
1716         963.47        37
1717         963.89        37
1718         964.31        39
1719         964.73        36
1720         965.15        33
1721         965.58        36
1722         966.00        36
1723         966.42        34
1724         966.84        34
1725         967.26        39
1726         967.69        30
1727         968.11        27
1728         968.53        42
1729         968.95        33
1730         969.37        35
1731         969.79        36
1732         970.22        31
1733         970.64        30
1734         971.06        39
1735         971.48        33
1736         971.90        37
1737         972.33        31
1738         972.75        35
1739         973.17        32
1740         973.59        33
1741         974.01        32
1742         974.44        33
1743         974.86        36
1744         975.28        33
1745         975.70        28
1746         976.12        36
1747         976.55        36
1748         976.97        31
1749         977.39        31
1750         977.81        35
1751         978.24        36
1752         978.66        36
1753         979.08        37
1754         979.50        36
1755         979.92        38
1756         980.35        37
1757         980.77        38
1758         981.19        35
1759         981.61        36
1760         982.03        29
1761         982.46        37
1762         982.88        34
1763         983.30        36
1764         983.72        39
1765         984.15        35
1766         984.57        38
1767         984.99        37
1768         985.41        37
1769         985.84        36
1770         986.26        38
1771         986.68        35
1772         987.10        31
1773         987.53        38
1774         987.95        32
1775         988.37        37
1776         988.79        36
1777         989.21        36
1778         989.64        31
1779         990.06        41
1780         990.48        35
1781         990.90        36
1782         991.33        35
1783         991.75        40
1784         992.17        32
1785         992.59        39
1786         993.02        36
1787         993.44        38
1788         993.86        38
1789         994.29        36
1790         994.71        40
1791         995.13        41
1792         995.55        38
1793         995.98        41
1794         996.40        38
1795         996.82        38
1796         997.24        41
1797         997.67        33
1798         998.09        40
1799         998.51        38
1800         998.93        42
1801         999.36        37
1802         999.78        32
1803        1000.20        36
1804        1000.63        37
1805        1001.05        30
1806        1001.47        37
1807        1001.89        42
1808        1002.32        40
1809        1002.74        42
1810        1003.16        43
1811        1003.58        45
1812        1004.01        36
1813        1004.43        40
1814        1004.85        37
1815        1005.28        40
1816        1005.70        40
1817        1006.12        38
1818        1006.54        38
1819        1006.97        41
1820        1007.39        41
1821        1007.81        43
1822        1008.24        42
1823        1008.66        37
1824        1009.08        42
1825        1009.50        40
1826        1009.93        38
1827        1010.35        35
1828        1010.77        40
1829        1011.20        39
1830        1011.62        43
1831        1012.04        39
1832        1012.47        32
1833        1012.89        39
1834        1013.31        37
1835        1013.73        42
1836        1014.16        39
1837        1014.58        39
1838        1015.00        37
1839        1015.43        39
1840        1015.85        38
1841        1016.27        41
1842        1016.70        41
1843        1017.12        38
1844        1017.54        39
1845        1017.97        34
1846        1018.39        38
1847        1018.81        33
1848        1019.24        39
1849        1019.66        32
1850        1020.08        39
1851        1020.50        36
1852        1020.93        37
1853        1021.35        40
1854        1021.77        35
1855        1022.20        40
1856        1022.62        40
1857        1023.04        36
1858        1023.47        35
1859        1023.89        38
1860        1024.31        37
1861        1024.74        35
1862        1025.16        32
1863        1025.58        34
1864        1026.01        37
1865        1026.43        38
1866        1026.85        43
1867        1027.28        39
1868        1027.70        35
1869        1028.12        36
1870        1028.55        43
1871        1028.97        43
1872        1029.39        45
1873        1029.82        38
1874        1030.24        38
1875        1030.66        36
1876        1031.09        34
1877        1031.51        38
1878        1031.93        40
1879        1032.36        35
1880        1032.78        39
1881        1033.20        39
1882        1033.63        38
1883        1034.05        37
1884        1034.47        35
1885        1034.90        39
1886        1035.32        41
1887        1035.75        41
1888        1036.17        37
1889        1036.59        37
1890        1037.02        36
1891        1037.44        41
1892        1037.86        37
1893        1038.29        32
1894        1038.71        38
1895        1039.13        37
1896        1039.56        36
1897        1039.98        40
1898        1040.40        33
1899        1040.83        41
1900        1041.25        32
1901        1041.67        33
1902        1042.10        33
1903        1042.52        33
1904        1042.95        35
1905        1043.37        37
1906        1043.79        37
1907        1044.22        38
1908        1044.64        33
1909        1045.06        32
1910        1045.49        38
1911        1045.91        40
1912        1046.33        36
1913        1046.76        36
1914        1047.18        34
1915        1047.61        32
1916        1048.03        37
1917        1048.45        30
1918        1048.88        33
1919        1049.30        37
1920        1049.72        35
1921        1050.15        35
1922        1050.57        34
1923        1051.00        34
1924        1051.42        41
1925        1051.84        36
1926        1052.27        37
1927        1052.69        38
1928        1053.11        38
1929        1053.54        36
1930        1053.96        34
1931        1054.39        36
1932        1054.81        33
1933        1055.23        30
1934        1055.66        40
1935        1056.08        39
1936        1056.51        37
1937        1056.93        30
1938        1057.35        40
1939        1057.78        34
1940        1058.20        38
1941        1058.62        34
1942        1059.05        44
1943        1059.47        40
1944        1059.90        41
1945        1060.32        36
1946        1060.74        41
1947        1061.17        42
1948        1061.59        41
1949        1062.02        37
1950        1062.44        41
1951        1062.86        37
1952        1063.29        35
1953        1063.71        34
1954        1064.14        31
1955        1064.56        34
1956        1064.98        43
1957        1065.41        44
1958        1065.83        36
1959        1066.26        39
1960        1066.68        45
1961        1067.10        44
1962        1067.53        38
1963        1067.95        42
1964        1068.37        42
1965        1068.80        43
1966        1069.22        38
1967        1069.65        40
1968        1070.07        45
1969        1070.50        40
1970        1070.92        39
1971        1071.34        36
1972        1071.77        37
1973        1072.19        45
1974        1072.62        41
1975        1073.04        41
1976        1073.46        43
1977        1073.89        40
1978        1074.31        40
1979        1074.74        36
1980        1075.16        43
1981        1075.58        43
1982        1076.01        41
1983        1076.43        37
1984        1076.86        39
1985        1077.28        39
1986        1077.70        39
1987        1078.13        41
1988        1078.55        42
1989        1078.98        37
1990        1079.40        43
1991        1079.83        39
1992        1080.25        37
1993        1080.67        35
1994        1081.10        36
1995        1081.52        36
1996        1081.95        37
1997        1082.37        37
1998        1082.79        36
1999        1083.22        41
2000        1083.64        39
2001        1084.07        42
2002        1084.49        39
2003        1084.92        42
2004        1085.34        39
2005        1085.76        39
2006        1086.19        40
2007        1086.61        42
2008        1087.04        41
2009        1087.46        39
2010        1087.88        39
2011        1088.31        39
2012        1088.73        37
2013        1089.16        46
2014        1089.58        39
2015        1090.01        36
2016        1090.43        42
2017        1090.85        38
2018        1091.28        40
2019        1091.70        41
2020        1092.13        34
2021        1092.55        43
2022        1092.98        36
2023        1093.40        41
2024        1093.82        36
2025        1094.25        37
2026        1094.67        36
2027        1095.10        42
2028        1095.52        41
2029        1095.95        41
2030        1096.37        38
2031        1096.79        38
2032        1097.22        47
2033        1097.64        36
2034        1098.07        39
2035        1098.49        38
2036        1098.92        30
2037        1099.34        44
2038        1099.76        33
2039        1100.19        37
2040        1100.61        33
2041        1101.04        37
2042        1101.46        31
2043        1101.89        29
2044        1102.31        34
2045        1102.74        36
2046        1103.16        36
2047        1103.58        36
2048        1104.01        36


