Project Name : Project Name
Sample Name : Sample Name
Measurement No : 1
Measurement Time : 10/13/2021   10:45:57

Pixel   Wavelength(nm)    Intensity
   1         284.37        38
   2         284.73        44
   3         285.08        43
   4         285.44        40
   5         285.80        44
   6         286.15        43
   7         286.51        39
   8         286.86        41
   9         287.22        39
  10         287.58        38
  11         287.93        37
  12         288.29        40
  13         288.64        39
  14         289.00        47
  15         289.36        43
  16         289.71        42
  17         290.07        45
  18         290.43        42
  19         290.78        44
  20         291.14        45
  21         291.50        47
  22         291.85        41
  23         292.21        42
  24         292.57        43
  25         292.93        42
  26         293.28        47
  27         293.64        39
  28         294.00        38
  29         294.35        46
  30         294.71        40
  31         295.07        41
  32         295.43        38
  33         295.78        38
  34         296.14        40
  35         296.50        49
  36         296.86        45
  37         297.22        44
  38         297.57        42
  39         297.93        46
  40         298.29        49
  41         298.65        48
  42         299.01        42
  43         299.36        36
  44         299.72        45
  45         300.08        41
  46         300.44        42
  47         300.80        44
  48         301.16        42
  49         301.51        51
  50         301.87        46
  51         302.23        41
  52         302.59        41
  53         302.95        49
  54         303.31        41
  55         303.67        45
  56         304.03        48
  57         304.39        42
  58         304.74        42
  59         305.10        38
  60         305.46        46
  61         305.82        37
  62         306.18        46
  63         306.54        41
  64         306.90        34
  65         307.26        44
  66         307.62        43
  67         307.98        46
  68         308.34        41
  69         308.70        43
  70         309.06        39
  71         309.42        41
  72         309.78        40
  73         310.14        47
  74         310.50        39
  75         310.86        40
  76         311.22        42
  77         311.58        45
  78         311.94        40
  79         312.30        36
  80         312.66        44
  81         313.02        39
  82         313.38        42
  83         313.74        44
  84         314.11        38
  85         314.47        41
  86         314.83        50
  87         315.19        44
  88         315.55        38
  89         315.91        37
  90         316.27        45
  91         316.63        39
  92         316.99        42
  93         317.36        35
  94         317.72        40
  95         318.08        41
  96         318.44        39
  97         318.80        44
  98         319.16        41
  99         319.52        37
 100         319.89        39
 101         320.25        43
 102         320.61        40
 103         320.97        39
 104         321.33        42
 105         321.70        41
 106         322.06        46
 107         322.42        38
 108         322.78        35
 109         323.14        38
 110         323.51        44
 111         323.87        34
 112         324.23        38
 113         324.59        38
 114         324.96        42
 115         325.32        35
 116         325.68        38
 117         326.05        35
 118         326.41        36
 119         326.77        35
 120         327.13        39
 121         327.50        41
 122         327.86        32
 123         328.22        42
 124         328.59        35
 125         328.95        40
 126         329.31        38
 127         329.68        35
 128         330.04        41
 129         330.40        33
 130         330.77        38
 131         331.13        39
 132         331.49        38
 133         331.86        38
 134         332.22        39
 135         332.59        41
 136         332.95        37
 137         333.31        34
 138         333.68        29
 139         334.04        33
 140         334.41        41
 141         334.77        40
 142         335.14        40
 143         335.50        41
 144         335.86        42
 145         336.23        37
 146         336.59        31
 147         336.96        39
 148         337.32        34
 149         337.69        38
 150         338.05        28
 151         338.42        34
 152         338.78        33
 153         339.15        41
 154         339.51        40
 155         339.88        37
 156         340.24        36
 157         340.61        39
 158         340.97        38
 159         341.34        31
 160         341.70        38
 161         342.07        39
 162         342.43        39
 163         342.80        32
 164         343.17        39
 165         343.53        32
 166         343.90        34
 167         344.26        32
 168         344.63        39
 169         344.99        45
 170         345.36        31
 171         345.73        35
 172         346.09        36
 173         346.46        41
 174         346.82        41
 175         347.19        33
 176         347.56        37
 177         347.92        39
 178         348.29        40
 179         348.66        41
 180         349.02        38
 181         349.39        39
 182         349.76        38
 183         350.12        38
 184         350.49        39
 185         350.86        38
 186         351.22        36
 187         351.59        39
 188         351.96        37
 189         352.33        38
 190         352.69        39
 191         353.06        43
 192         353.43        39
 193         353.79        40
 194         354.16        41
 195         354.53        37
 196         354.90        39
 197         355.26        37
 198         355.63        38
 199         356.00        39
 200         356.37        37
 201         356.74        41
 202         357.10        39
 203         357.47        41
 204         357.84        41
 205         358.21        41
 206         358.57        40
 207         358.94        38
 208         359.31        38
 209         359.68        39
 210         360.05        40
 211         360.42        38
 212         360.78        43
 213         361.15        37
 214         361.52        38
 215         361.89        45
 216         362.26        41
 217         362.63        40
 218         363.00        42
 219         363.37        43
 220         363.73        44
 221         364.10        38
 222         364.47        38
 223         364.84        46
 224         365.21        38
 225         365.58        40
 226         365.95        41
 227         366.32        42
 228         366.69        44
 229         367.06        39
 230         367.43        38
 231         367.80        49
 232         368.17        41
 233         368.54        41
 234         368.90        39
 235         369.27        40
 236         369.64        41
 237         370.01        41
 238         370.38        45
 239         370.75        42
 240         371.12        42
 241         371.49        41
 242         371.86        43
 243         372.23        39
 244         372.61        43
 245         372.98        46
 246         373.35        36
 247         373.72        48
 248         374.09        50
 249         374.46        40
 250         374.83        48
 251         375.20        42
 252         375.57        41
 253         375.94        37
 254         376.31        43
 255         376.68        41
 256         377.05        48
 257         377.42        40
 258         377.79        45
 259         378.17        43
 260         378.54        47
 261         378.91        37
 262         379.28        44
 263         379.65        38
 264         380.02        42
 265         380.39        43
 266         380.77        43
 267         381.14        47
 268         381.51        47
 269         381.88        44
 270         382.25        42
 271         382.62        42
 272         383.00        41
 273         383.37        41
 274         383.74        41
 275         384.11        43
 276         384.48        40
 277         384.86        51
 278         385.23        43
 279         385.60        41
 280         385.97        46
 281         386.35        44
 282         386.72        46
 283         387.09        40
 284         387.46        40
 285         387.84        35
 286         388.21        44
 287         388.58        40
 288         388.95        42
 289         389.33        39
 290         389.70        47
 291         390.07        40
 292         390.44        44
 293         390.82        44
 294         391.19        39
 295         391.56        38
 296         391.94        44
 297         392.31        37
 298         392.68        41
 299         393.06        37
 300         393.43        41
 301         393.80        43
 302         394.18        36
 303         394.55        41
 304         394.92        43
 305         395.30        43
 306         395.67        45
 307         396.05        43
 308         396.42        42
 309         396.79        36
 310         397.17        44
 311         397.54        39
 312         397.92        40
 313         398.29        41
 314         398.66        39
 315         399.04        45
 316         399.41        39
 317         399.79        40
 318         400.16        34
 319         400.54        40
 320         400.91        40
 321         401.28        41
 322         401.66        43
 323         402.03        37
 324         402.41        42
 325         402.78        41
 326         403.16        40
 327         403.53        42
 328         403.91        36
 329         404.28        39
 330         404.66        41
 331         405.03        40
 332         405.41        40
 333         405.78        38
 334         406.16        41
 335         406.53        39
 336         406.91        37
 337         407.29        39
 338         407.66        38
 339         408.04        42
 340         408.41        40
 341         408.79        39
 342         409.16        38
 343         409.54        38
 344         409.92        39
 345         410.29        38
 346         410.67        38
 347         411.04        34
 348         411.42        39
 349         411.79        42
 350         412.17        43
 351         412.55        43
 352         412.92        38
 353         413.30        39
 354         413.68        40
 355         414.05        44
 356         414.43        38
 357         414.81        39
 358         415.18        38
 359         415.56        39
 360         415.94        40
 361         416.31        41
 362         416.69        45
 363         417.07        36
 364         417.44        31
 365         417.82        38
 366         418.20        37
 367         418.57        36
 368         418.95        37
 369         419.33        38
 370         419.71        33
 371         420.08        38
 372         420.46        39
 373         420.84        42
 374         421.21        32
 375         421.59        38
 376         421.97        40
 377         422.35        43
 378         422.72        43
 379         423.10        38
 380         423.48        42
 381         423.86        38
 382         424.24        36
 383         424.61        38
 384         424.99        39
 385         425.37        36
 386         425.75        35
 387         426.13        40
 388         426.50        40
 389         426.88        39
 390         427.26        42
 391         427.64        43
 392         428.02        35
 393         428.40        36
 394         428.77        41
 395         429.15        41
 396         429.53        37
 397         429.91        38
 398         430.29        37
 399         430.67        43
 400         431.05        39
 401         431.42        41
 402         431.80        45
 403         432.18        44
 404         432.56        41
 405         432.94        41
 406         433.32        41
 407         433.70        44
 408         434.08        40
 409         434.46        39
 410         434.84        43
 411         435.22        45
 412         435.60        46
 413         435.98        42
 414         436.35        40
 415         436.73        41
 416         437.11        38
 417         437.49        46
 418         437.87        45
 419         438.25        39
 420         438.63        44
 421         439.01        43
 422         439.39        45
 423         439.77        39
 424         440.15        42
 425         440.53        45
 426         440.91        42
 427         441.29        40
 428         441.67        43
 429         442.05        38
 430         442.43        38
 431         442.81        39
 432         443.19        40
 433         443.58        41
 434         443.96        40
 435         444.34        44
 436         444.72        45
 437         445.10        37
 438         445.48        38
 439         445.86        41
 440         446.24        44
 441         446.62        45
 442         447.00        40
 443         447.38        47
 444         447.76        39
 445         448.15        41
 446         448.53        44
 447         448.91        49
 448         449.29        45
 449         449.67        42
 450         450.05        43
 451         450.43        50
 452         450.81        41
 453         451.20        44
 454         451.58        44
 455         451.96        44
 456         452.34        50
 457         452.72        41
 458         453.10        34
 459         453.49        42
 460         453.87        42
 461         454.25        47
 462         454.63        41
 463         455.01        40
 464         455.40        42
 465         455.78        42
 466         456.16        43
 467         456.54        42
 468         456.92        41
 469         457.31        43
 470         457.69        48
 471         458.07        43
 472         458.45        46
 473         458.84        36
 474         459.22        41
 475         459.60        42
 476         459.98        48
 477         460.37        45
 478         460.75        42
 479         461.13        47
 480         461.52        46
 481         461.90        41
 482         462.28        46
 483         462.66        46
 484         463.05        43
 485         463.43        40
 486         463.81        45
 487         464.20        40
 488         464.58        45
 489         464.96        44
 490         465.35        43
 491         465.73        42
 492         466.11        42
 493         466.50        38
 494         466.88        43
 495         467.27        38
 496         467.65        46
 497         468.03        46
 498         468.42        39
 499         468.80        43
 500         469.18        42
 501         469.57        44
 502         469.95        44
 503         470.34        41
 504         470.72        39
 505         471.10        36
 506         471.49        42
 507         471.87        46
 508         472.26        46
 509         472.64        42
 510         473.03        39
 511         473.41        47
 512         473.79        45
 513         474.18        44
 514         474.56        41
 515         474.95        46
 516         475.33        46
 517         475.72        46
 518         476.10        50
 519         476.49        44
 520         476.87        47
 521         477.26        50
 522         477.64        43
 523         478.03        47
 524         478.41        46
 525         478.80        47
 526         479.18        47
 527         479.57        49
 528         479.95        42
 529         480.34        51
 530         480.72        46
 531         481.11        48
 532         481.49        50
 533         481.88        47
 534         482.26        49
 535         482.65        49
 536         483.04        50
 537         483.42        50
 538         483.81        51
 539         484.19        47
 540         484.58        47
 541         484.96        51
 542         485.35        55
 543         485.74        58
 544         486.12        52
 545         486.51        56
 546         486.89        61
 547         487.28        55
 548         487.67        55
 549         488.05        61
 550         488.44        58
 551         488.83        56
 552         489.21        53
 553         489.60        62
 554         489.99        60
 555         490.37        63
 556         490.76        64
 557         491.14        65
 558         491.53        67
 559         491.92        68
 560         492.31        62
 561         492.69        63
 562         493.08        65
 563         493.47        70
 564         493.85        65
 565         494.24        70
 566         494.63        68
 567         495.01        68
 568         495.40        72
 569         495.79        68
 570         496.18        66
 571         496.56        69
 572         496.95        72
 573         497.34        75
 574         497.72        75
 575         498.11        80
 576         498.50        86
 577         498.89        77
 578         499.28        78
 579         499.66        84
 580         500.05        89
 581         500.44        87
 582         500.83        90
 583         501.21        89
 584         501.60        86
 585         501.99       100
 586         502.38       105
 587         502.77        96
 588         503.15       109
 589         503.54       104
 590         503.93       106
 591         504.32       103
 592         504.71       112
 593         505.09       112
 594         505.48       116
 595         505.87       113
 596         506.26       118
 597         506.65       122
 598         507.04       132
 599         507.43       125
 600         507.81       125
 601         508.20       142
 602         508.59       135
 603         508.98       135
 604         509.37       147
 605         509.76       145
 606         510.15       153
 607         510.54       156
 608         510.93       158
 609         511.31       158
 610         511.70       151
 611         512.09       165
 612         512.48       165
 613         512.87       172
 614         513.26       173
 615         513.65       181
 616         514.04       184
 617         514.43       183
 618         514.82       188
 619         515.21       185
 620         515.60       192
 621         515.99       195
 622         516.38       216
 623         516.77       212
 624         517.16       214
 625         517.55       216
 626         517.94       218
 627         518.33       219
 628         518.72       223
 629         519.11       230
 630         519.50       235
 631         519.89       236
 632         520.28       240
 633         520.67       246
 634         521.06       241
 635         521.45       247
 636         521.84       255
 637         522.23       257
 638         522.62       259
 639         523.01       252
 640         523.40       268
 641         523.79       265
 642         524.18       272
 643         524.57       266
 644         524.96       268
 645         525.35       288
 646         525.74       269
 647         526.13       278
 648         526.52       290
 649         526.91       280
 650         527.31       278
 651         527.70       291
 652         528.09       293
 653         528.48       294
 654         528.87       301
 655         529.26       307
 656         529.65       301
 657         530.04       316
 658         530.43       314
 659         530.83       314
 660         531.22       317
 661         531.61       327
 662         532.00       323
 663         532.39       323
 664         532.78       338
 665         533.17       332
 666         533.57       330
 667         533.96       334
 668         534.35       337
 669         534.74       332
 670         535.13       333
 671         535.52       347
 672         535.92       342
 673         536.31       339
 674         536.70       346
 675         537.09       350
 676         537.48       345
 677         537.88       352
 678         538.27       351
 679         538.66       355
 680         539.05       351
 681         539.45       356
 682         539.84       359
 683         540.23       359
 684         540.62       350
 685         541.02       350
 686         541.41       340
 687         541.80       350
 688         542.19       343
 689         542.59       340
 690         542.98       339
 691         543.37       338
 692         543.76       338
 693         544.16       323
 694         544.55       336
 695         544.94       332
 696         545.34       329
 697         545.73       336
 698         546.12       328
 699         546.51       330
 700         546.91       324
 701         547.30       334
 702         547.69       312
 703         548.09       305
 704         548.48       312
 705         548.87       317
 706         549.27       309
 707         549.66       310
 708         550.05       312
 709         550.45       302
 710         550.84       299
 711         551.24       295
 712         551.63       297
 713         552.02       284
 714         552.42       275
 715         552.81       288
 716         553.20       265
 717         553.60       270
 718         553.99       265
 719         554.39       266
 720         554.78       268
 721         555.17       253
 722         555.57       259
 723         555.96       247
 724         556.36       238
 725         556.75       243
 726         557.14       235
 727         557.54       233
 728         557.93       214
 729         558.33       224
 730         558.72       218
 731         559.12       208
 732         559.51       201
 733         559.91       189
 734         560.30       185
 735         560.69       172
 736         561.09       167
 737         561.48       156
 738         561.88       140
 739         562.27       137
 740         562.67       124
 741         563.06       112
 742         563.46       113
 743         563.85       101
 744         564.25       106
 745         564.64       103
 746         565.04       102
 747         565.43       104
 748         565.83       108
 749         566.22       108
 750         566.62       112
 751         567.01       108
 752         567.41       117
 753         567.80       114
 754         568.20       111
 755         568.60       121
 756         568.99       114
 757         569.39       110
 758         569.78       114
 759         570.18       115
 760         570.57       113
 761         570.97       110
 762         571.36       103
 763         571.76       108
 764         572.16       101
 765         572.55        98
 766         572.95       103
 767         573.34       105
 768         573.74       101
 769         574.14        92
 770         574.53        95
 771         574.93        88
 772         575.32        96
 773         575.72        87
 774         576.12        94
 775         576.51        94
 776         576.91        84
 777         577.31        83
 778         577.70        86
 779         578.10        81
 780         578.50        80
 781         578.89        77
 782         579.29        83
 783         579.69        76
 784         580.08        75
 785         580.48        79
 786         580.88        74
 787         581.27        74
 788         581.67        71
 789         582.07        69
 790         582.46        70
 791         582.86        68
 792         583.26        72
 793         583.65        73
 794         584.05        68
 795         584.45        63
 796         584.84        70
 797         585.24        65
 798         585.64        67
 799         586.04        67
 800         586.43        64
 801         586.83        59
 802         587.23        59
 803         587.63        62
 804         588.02        58
 805         588.42        66
 806         588.82        60
 807         589.22        66
 808         589.61        60
 809         590.01        58
 810         590.41        59
 811         590.81        55
 812         591.20        59
 813         591.60        55
 814         592.00        60
 815         592.40        59
 816         592.80        54
 817         593.19        55
 818         593.59        57
 819         593.99        51
 820         594.39        57
 821         594.79        58
 822         595.18        55
 823         595.58        54
 824         595.98        54
 825         596.38        54
 826         596.78        53
 827         597.18        51
 828         597.57        55
 829         597.97        56
 830         598.37        55
 831         598.77        51
 832         599.17        52
 833         599.57        47
 834         599.97        55
 835         600.36        49
 836         600.76        47
 837         601.16        52
 838         601.56        51
 839         601.96        46
 840         602.36        46
 841         602.76        47
 842         603.16        45
 843         603.56        49
 844         603.95        47
 845         604.35        47
 846         604.75        44
 847         605.15        47
 848         605.55        47
 849         605.95        46
 850         606.35        47
 851         606.75        47
 852         607.15        42
 853         607.55        51
 854         607.95        42
 855         608.35        40
 856         608.75        42
 857         609.15        50
 858         609.55        44
 859         609.95        40
 860         610.35        40
 861         610.74        47
 862         611.14        47
 863         611.54        43
 864         611.94        44
 865         612.34        45
 866         612.74        40
 867         613.14        46
 868         613.54        44
 869         613.94        43
 870         614.34        42
 871         614.74        41
 872         615.14        41
 873         615.54        40
 874         615.94        34
 875         616.34        36
 876         616.74        42
 877         617.15        43
 878         617.55        35
 879         617.95        44
 880         618.35        42
 881         618.75        41
 882         619.15        40
 883         619.55        39
 884         619.95        43
 885         620.35        38
 886         620.75        33
 887         621.15        46
 888         621.55        35
 889         621.95        43
 890         622.35        38
 891         622.75        43
 892         623.15        41
 893         623.56        44
 894         623.96        36
 895         624.36        40
 896         624.76        41
 897         625.16        41
 898         625.56        39
 899         625.96        44
 900         626.36        37
 901         626.76        39
 902         627.17        40
 903         627.57        42
 904         627.97        36
 905         628.37        38
 906         628.77        37
 907         629.17        33
 908         629.57        32
 909         629.98        38
 910         630.38        32
 911         630.78        39
 912         631.18        36
 913         631.58        40
 914         631.98        39
 915         632.39        39
 916         632.79        36
 917         633.19        35
 918         633.59        38
 919         633.99        35
 920         634.39        41
 921         634.80        38
 922         635.20        33
 923         635.60        44
 924         636.00        41
 925         636.40        38
 926         636.81        40
 927         637.21        41
 928         637.61        42
 929         638.01        32
 930         638.42        37
 931         638.82        37
 932         639.22        35
 933         639.62        41
 934         640.03        40
 935         640.43        43
 936         640.83        36
 937         641.23        37
 938         641.64        41
 939         642.04        40
 940         642.44        39
 941         642.84        35
 942         643.25        39
 943         643.65        38
 944         644.05        43
 945         644.45        37
 946         644.86        40
 947         645.26        40
 948         645.66        38
 949         646.07        35
 950         646.47        41
 951         646.87        40
 952         647.28        37
 953         647.68        35
 954         648.08        39
 955         648.49        39
 956         648.89        36
 957         649.29        40
 958         649.69        36
 959         650.10        39
 960         650.50        42
 961         650.91        44
 962         651.31        45
 963         651.71        37
 964         652.12        39
 965         652.52        44
 966         652.92        41
 967         653.33        40
 968         653.73        38
 969         654.13        45
 970         654.54        41
 971         654.94        36
 972         655.34        43
 973         655.75        39
 974         656.15        43
 975         656.56        40
 976         656.96        40
 977         657.36        49
 978         657.77        40
 979         658.17        48
 980         658.58        47
 981         658.98        47
 982         659.38        45
 983         659.79        39
 984         660.19        43
 985         660.60        46
 986         661.00        44
 987         661.41        40
 988         661.81        42
 989         662.21        45
 990         662.62        48
 991         663.02        49
 992         663.43        56
 993         663.83        48
 994         664.24        47
 995         664.64        46
 996         665.05        42
 997         665.45        49
 998         665.86        39
 999         666.26        49
1000         666.67        45
1001         667.07        41
1002         667.48        42
1003         667.88        42
1004         668.28        44
1005         668.69        40
1006         669.09        47
1007         669.50        45
1008         669.90        40
1009         670.31        44
1010         670.72        40
1011         671.12        42
1012         671.53        43
1013         671.93        46
1014         672.34        41
1015         672.74        46
1016         673.15        43
1017         673.55        44
1018         673.96        44
1019         674.36        46
1020         674.77        45
1021         675.17        45
1022         675.58        37
1023         675.98        45
1024         676.39        41
1025         676.80        46
1026         677.20        46
1027         677.61        36
1028         678.01        44
1029         678.42        46
1030         678.82        44
1031         679.23        48
1032         679.64        43
1033         680.04        44
1034         680.45        44
1035         680.85        43
1036         681.26        41
1037         681.67        44
1038         682.07        40
1039         682.48        43
1040         682.88        40
1041         683.29        43
1042         683.70        46
1043         684.10        43
1044         684.51        42
1045         684.92        43
1046         685.32        43
1047         685.73        36
1048         686.13        42
1049         686.54        42
1050         686.95        46
1051         687.35        47
1052         687.76        39
1053         688.17        37
1054         688.57        38
1055         688.98        47
1056         689.39        38
1057         689.79        42
1058         690.20        47
1059         690.61        40
1060         691.01        39
1061         691.42        41
1062         691.83        51
1063         692.23        41
1064         692.64        41
1065         693.05        40
1066         693.45        41
1067         693.86        41
1068         694.27        40
1069         694.68        37
1070         695.08        39
1071         695.49        37
1072         695.90        43
1073         696.30        36
1074         696.71        37
1075         697.12        41
1076         697.53        36
1077         697.93        40
1078         698.34        41
1079         698.75        44
1080         699.16        34
1081         699.56        44
1082         699.97        34
1083         700.38        42
1084         700.79        32
1085         701.19        36
1086         701.60        45
1087         702.01        37
1088         702.42        43
1089         702.82        34
1090         703.23        39
1091         703.64        34
1092         704.05        42
1093         704.46        35
1094         704.86        41
1095         705.27        36
1096         705.68        35
1097         706.09        40
1098         706.49        40
1099         706.90        47
1100         707.31        31
1101         707.72        33
1102         708.13        41
1103         708.54        34
1104         708.94        34
1105         709.35        41
1106         709.76        37
1107         710.17        36
1108         710.58        36
1109         710.98        35
1110         711.39        33
1111         711.80        36
1112         712.21        37
1113         712.62        29
1114         713.03        37
1115         713.44        37
1116         713.84        39
1117         714.25        33
1118         714.66        37
1119         715.07        39
1120         715.48        32
1121         715.89        40
1122         716.30        34
1123         716.70        37
1124         717.11        37
1125         717.52        39
1126         717.93        36
1127         718.34        41
1128         718.75        37
1129         719.16        38
1130         719.57        33
1131         719.98        34
1132         720.39        38
1133         720.79        29
1134         721.20        35
1135         721.61        37
1136         722.02        36
1137         722.43        35
1138         722.84        37
1139         723.25        36
1140         723.66        39
1141         724.07        33
1142         724.48        34
1143         724.89        43
1144         725.30        33
1145         725.71        37
1146         726.12        30
1147         726.52        38
1148         726.93        36
1149         727.34        37
1150         727.75        41
1151         728.16        30
1152         728.57        35
1153         728.98        36
1154         729.39        36
1155         729.80        37
1156         730.21        37
1157         730.62        35
1158         731.03        35
1159         731.44        36
1160         731.85        44
1161         732.26        36
1162         732.67        38
1163         733.08        42
1164         733.49        41
1165         733.90        37
1166         734.31        37
1167         734.72        38
1168         735.13        38
1169         735.54        39
1170         735.95        42
1171         736.36        38
1172         736.77        43
1173         737.18        38
1174         737.59        40
1175         738.00        43
1176         738.41        40
1177         738.82        40
1178         739.23        39
1179         739.64        37
1180         740.05        37
1181         740.47        43
1182         740.88        41
1183         741.29        40
1184         741.70        41
1185         742.11        42
1186         742.52        41
1187         742.93        34
1188         743.34        43
1189         743.75        43
1190         744.16        45
1191         744.57        46
1192         744.98        37
1193         745.39        38
1194         745.80        39
1195         746.22        40
1196         746.63        43
1197         747.04        43
1198         747.45        38
1199         747.86        43
1200         748.27        44
1201         748.68        40
1202         749.09        36
1203         749.50        38
1204         749.91        42
1205         750.33        34
1206         750.74        43
1207         751.15        42
1208         751.56        40
1209         751.97        39
1210         752.38        43
1211         752.79        47
1212         753.20        42
1213         753.62        44
1214         754.03        39
1215         754.44        42
1216         754.85        44
1217         755.26        44
1218         755.67        38
1219         756.09        41
1220         756.50        41
1221         756.91        42
1222         757.32        42
1223         757.73        41
1224         758.14        42
1225         758.56        44
1226         758.97        40
1227         759.38        43
1228         759.79        40
1229         760.20        38
1230         760.61        45
1231         761.03        41
1232         761.44        46
1233         761.85        44
1234         762.26        39
1235         762.67        39
1236         763.09        36
1237         763.50        46
1238         763.91        41
1239         764.32        35
1240         764.73        41
1241         765.15        40
1242         765.56        38
1243         765.97        39
1244         766.38        44
1245         766.80        44
1246         767.21        39
1247         767.62        42
1248         768.03        37
1249         768.45        38
1250         768.86        38
1251         769.27        42
1252         769.68        38
1253         770.10        39
1254         770.51        41
1255         770.92        33
1256         771.33        39
1257         771.75        42
1258         772.16        39
1259         772.57        40
1260         772.98        42
1261         773.40        39
1262         773.81        36
1263         774.22        36
1264         774.63        36
1265         775.05        29
1266         775.46        37
1267         775.87        40
1268         776.29        37
1269         776.70        35
1270         777.11        41
1271         777.52        42
1272         777.94        40
1273         778.35        33
1274         778.76        37
1275         779.18        38
1276         779.59        35
1277         780.00        40
1278         780.42        35
1279         780.83        39
1280         781.24        39
1281         781.66        33
1282         782.07        42
1283         782.48        40
1284         782.90        39
1285         783.31        36
1286         783.72        38
1287         784.14        32
1288         784.55        36
1289         784.96        35
1290         785.38        37
1291         785.79        35
1292         786.20        36
1293         786.62        34
1294         787.03        33
1295         787.44        42
1296         787.86        38
1297         788.27        36
1298         788.69        34
1299         789.10        37
1300         789.51        31
1301         789.93        31
1302         790.34        36
1303         790.75        34
1304         791.17        32
1305         791.58        36
1306         792.00        36
1307         792.41        41
1308         792.82        36
1309         793.24        35
1310         793.65        35
1311         794.07        38
1312         794.48        39
1313         794.89        40
1314         795.31        36
1315         795.72        38
1316         796.14        39
1317         796.55        35
1318         796.96        38
1319         797.38        34
1320         797.79        37
1321         798.21        38
1322         798.62        35
1323         799.04        35
1324         799.45        42
1325         799.86        38
1326         800.28        35
1327         800.69        40
1328         801.11        37
1329         801.52        38
1330         801.94        33
1331         802.35        36
1332         802.77        36
1333         803.18        32
1334         803.59        43
1335         804.01        36
1336         804.42        40
1337         804.84        40
1338         805.25        36
1339         805.67        38
1340         806.08        36
1341         806.50        33
1342         806.91        34
1343         807.33        38
1344         807.74        37
1345         808.16        38
1346         808.57        38
1347         808.99        47
1348         809.40        39
1349         809.82        42
1350         810.23        44
1351         810.65        42
1352         811.06        39
1353         811.48        41
1354         811.89        38
1355         812.31        45
1356         812.72        39
1357         813.14        35
1358         813.55        44
1359         813.97        43
1360         814.38        40
1361         814.80        37
1362         815.21        42
1363         815.63        44
1364         816.04        41
1365         816.46        52
1366         816.87        39
1367         817.29        47
1368         817.70        39
1369         818.12        37
1370         818.54        43
1371         818.95        41
1372         819.37        40
1373         819.78        45
1374         820.20        44
1375         820.61        46
1376         821.03        43
1377         821.44        37
1378         821.86        39
1379         822.28        38
1380         822.69        45
1381         823.11        42
1382         823.52        40
1383         823.94        40
1384         824.35        39
1385         824.77        50
1386         825.19        46
1387         825.60        41
1388         826.02        43
1389         826.43        50
1390         826.85        44
1391         827.26        47
1392         827.68        40
1393         828.10        42
1394         828.51        41
1395         828.93        46
1396         829.34        41
1397         829.76        41
1398         830.18        41
1399         830.59        39
1400         831.01        41
1401         831.43        42
1402         831.84        41
1403         832.26        44
1404         832.67        40
1405         833.09        44
1406         833.51        38
1407         833.92        41
1408         834.34        39
1409         834.76        39
1410         835.17        41
1411         835.59        36
1412         836.00        49
1413         836.42        42
1414         836.84        39
1415         837.25        39
1416         837.67        43
1417         838.09        40
1418         838.50        41
1419         838.92        37
1420         839.34        37
1421         839.75        44
1422         840.17        39
1423         840.59        38
1424         841.00        34
1425         841.42        38
1426         841.84        37
1427         842.25        39
1428         842.67        40
1429         843.09        46
1430         843.50        34
1431         843.92        40
1432         844.34        51
1433         844.75        31
1434         845.17        38
1435         845.59        43
1436         846.00        37
1437         846.42        39
1438         846.84        41
1439         847.25        42
1440         847.67        35
1441         848.09        46
1442         848.51        39
1443         848.92        37
1444         849.34        35
1445         849.76        35
1446         850.17        40
1447         850.59        39
1448         851.01        39
1449         851.43        38
1450         851.84        38
1451         852.26        36
1452         852.68        39
1453         853.09        36
1454         853.51        36
1455         853.93        40
1456         854.35        35
1457         854.76        37
1458         855.18        37
1459         855.60        34
1460         856.02        38
1461         856.43        33
1462         856.85        39
1463         857.27        34
1464         857.69        33
1465         858.10        34
1466         858.52        33
1467         858.94        35
1468         859.36        37
1469         859.77        34
1470         860.19        36
1471         860.61        35
1472         861.03        31
1473         861.44        34
1474         861.86        31
1475         862.28        37
1476         862.70        33
1477         863.12        35
1478         863.53        26
1479         863.95        35
1480         864.37        34
1481         864.79        33
1482         865.20        33
1483         865.62        34
1484         866.04        40
1485         866.46        41
1486         866.88        33
1487         867.29        35
1488         867.71        32
1489         868.13        38
1490         868.55        37
1491         868.97        32
1492         869.38        40
1493         869.80        34
1494         870.22        35
1495         870.64        30
1496         871.06        30
1497         871.47        31
1498         871.89        35
1499         872.31        36
1500         872.73        33
1501         873.15        35
1502         873.57        32
1503         873.98        30
1504         874.40        33
1505         874.82        36
1506         875.24        35
1507         875.66        32
1508         876.08        38
1509         876.49        34
1510         876.91        32
1511         877.33        34
1512         877.75        35
1513         878.17        31
1514         878.59        35
1515         879.00        34
1516         879.42        38
1517         879.84        33
1518         880.26        36
1519         880.68        35
1520         881.10        35
1521         881.52        33
1522         881.93        34
1523         882.35        34
1524         882.77        36
1525         883.19        35
1526         883.61        35
1527         884.03        34
1528         884.45        30
1529         884.87        37
1530         885.28        38
1531         885.70        30
1532         886.12        35
1533         886.54        33
1534         886.96        39
1535         887.38        34
1536         887.80        37
1537         888.22        31
1538         888.64        35
1539         889.05        39
1540         889.47        33
1541         889.89        37
1542         890.31        38
1543         890.73        31
1544         891.15        34
1545         891.57        36
1546         891.99        39
1547         892.41        35
1548         892.83        33
1549         893.24        38
1550         893.66        43
1551         894.08        40
1552         894.50        39
1553         894.92        43
1554         895.34        38
1555         895.76        38
1556         896.18        40
1557         896.60        39
1558         897.02        39
1559         897.44        40
1560         897.86        43
1561         898.28        37
1562         898.69        36
1563         899.11        42
1564         899.53        36
1565         899.95        45
1566         900.37        36
1567         900.79        40
1568         901.21        40
1569         901.63        40
1570         902.05        41
1571         902.47        39
1572         902.89        36
1573         903.31        41
1574         903.73        36
1575         904.15        40
1576         904.57        37
1577         904.99        47
1578         905.41        61
1579         905.83        39
1580         906.25        42
1581         906.67        37
1582         907.09        38
1583         907.51        42
1584         907.93        39
1585         908.34        37
1586         908.76        41
1587         909.18        35
1588         909.60        40
1589         910.02        36
1590         910.44        37
1591         910.86        38
1592         911.28        36
1593         911.70        42
1594         912.12        36
1595         912.54        36
1596         912.96        36
1597         913.38        40
1598         913.80        32
1599         914.22        37
1600         914.64        36
1601         915.06        39
1602         915.48        41
1603         915.90        39
1604         916.32        40
1605         916.74        42
1606         917.16        41
1607         917.58        34
1608         918.00        36
1609         918.42        33
1610         918.84        40
1611         919.26        41
1612         919.68        35
1613         920.10        35
1614         920.53        43
1615         920.95        33
1616         921.37        40
1617         921.79        39
1618         922.21        39
1619         922.63        40
1620         923.05        41
1621         923.47        33
1622         923.89        37
1623         924.31        35
1624         924.73        39
1625         925.15        38
1626         925.57        37
1627         925.99        34
1628         926.41        33
1629         926.83        30
1630         927.25        45
1631         927.67        37
1632         928.09        38
1633         928.51        31
1634         928.93        33
1635         929.35        32
1636         929.77        39
1637         930.19        36
1638         930.62        36
1639         931.04        39
1640         931.46        37
1641         931.88        39
1642         932.30        31
1643         932.72        33
1644         933.14        30
1645         933.56        34
1646         933.98        33
1647         934.40        35
1648         934.82        35
1649         935.24        37
1650         935.66        36
1651         936.08        35
1652         936.51        34
1653         936.93        34
1654         937.35        38
1655         937.77        32
1656         938.19        35
1657         938.61        32
1658         939.03        34
1659         939.45        32
1660         939.87        34
1661         940.29        35
1662         940.71        31
1663         941.14        26
1664         941.56        37
1665         941.98        29
1666         942.40        33
1667         942.82        26
1668         943.24        27
1669         943.66        34
1670         944.08        32
1671         944.50        31
1672         944.92        34
1673         945.35        37
1674         945.77        27
1675         946.19        33
1676         946.61        32
1677         947.03        28
1678         947.45        28
1679         947.87        28
1680         948.29        29
1681         948.72        33
1682         949.14        28
1683         949.56        29
1684         949.98        31
1685         950.40        30
1686         950.82        33
1687         951.24        37
1688         951.66        28
1689         952.09        33
1690         952.51        30
1691         952.93        30
1692         953.35        33
1693         953.77        31
1694         954.19        36
1695         954.61        33
1696         955.04        32
1697         955.46        28
1698         955.88        29
1699         956.30        33
1700         956.72        32
1701         957.14        34
1702         957.56        31
1703         957.99        28
1704         958.41        31
1705         958.83        29
1706         959.25        32
1707         959.67        31
1708         960.09        28
1709         960.52        33
1710         960.94        36
1711         961.36        34
1712         961.78        29
1713         962.20        29
1714         962.62        27
1715         963.05        32
1716         963.47        31
1717         963.89        30
1718         964.31        30
1719         964.73        27
1720         965.15        33
1721         965.58        32
1722         966.00        35
1723         966.42        31
1724         966.84        28
1725         967.26        29
1726         967.69        33
1727         968.11        34
1728         968.53        38
1729         968.95        30
1730         969.37        30
1731         969.79        34
1732         970.22        33
1733         970.64        33
1734         971.06        36
1735         971.48        33
1736         971.90        40
1737         972.33        30
1738         972.75        36
1739         973.17        34
1740         973.59        37
1741         974.01        36
1742         974.44        38
1743         974.86        32
1744         975.28        34
1745         975.70        34
1746         976.12        37
1747         976.55        36
1748         976.97        39
1749         977.39        34
1750         977.81        39
1751         978.24        34
1752         978.66        41
1753         979.08        33
1754         979.50        34
1755         979.92        35
1756         980.35        42
1757         980.77        41
1758         981.19        38
1759         981.61        35
1760         982.03        38
1761         982.46        31
1762         982.88        39
1763         983.30        37
1764         983.72        34
1765         984.15        41
1766         984.57        42
1767         984.99        42
1768         985.41        44
1769         985.84        43
1770         986.26        37
1771         986.68        41
1772         987.10        34
1773         987.53        36
1774         987.95        38
1775         988.37        40
1776         988.79        38
1777         989.21        34
1778         989.64        41
1779         990.06        43
1780         990.48        43
1781         990.90        33
1782         991.33        39
1783         991.75        39
1784         992.17        36
1785         992.59        34
1786         993.02        42
1787         993.44        37
1788         993.86        38
1789         994.29        42
1790         994.71        42
1791         995.13        39
1792         995.55        37
1793         995.98        37
1794         996.40        38
1795         996.82        38
1796         997.24        36
1797         997.67        40
1798         998.09        36
1799         998.51        36
1800         998.93        33
1801         999.36        40
1802         999.78        35
1803        1000.20        35
1804        1000.63        41
1805        1001.05        39
1806        1001.47        39
1807        1001.89        42
1808        1002.32        42
1809        1002.74        35
1810        1003.16        40
1811        1003.58        43
1812        1004.01        38
1813        1004.43        38
1814        1004.85        41
1815        1005.28        37
1816        1005.70        36
1817        1006.12        35
1818        1006.54        44
1819        1006.97        37
1820        1007.39        42
1821        1007.81        38
1822        1008.24        34
1823        1008.66        42
1824        1009.08        33
1825        1009.50        35
1826        1009.93        32
1827        1010.35        37
1828        1010.77        38
1829        1011.20        38
1830        1011.62        36
1831        1012.04        35
1832        1012.47        34
1833        1012.89        35
1834        1013.31        32
1835        1013.73        34
1836        1014.16        35
1837        1014.58        35
1838        1015.00        36
1839        1015.43        37
1840        1015.85        32
1841        1016.27        36
1842        1016.70        34
1843        1017.12        33
1844        1017.54        33
1845        1017.97        32
1846        1018.39        33
1847        1018.81        32
1848        1019.24        34
1849        1019.66        32
1850        1020.08        37
1851        1020.50        28
1852        1020.93        31
1853        1021.35        33
1854        1021.77        28
1855        1022.20        34
1856        1022.62        30
1857        1023.04        33
1858        1023.47        31
1859        1023.89        31
1860        1024.31        33
1861        1024.74        33
1862        1025.16        35
1863        1025.58        28
1864        1026.01        34
1865        1026.43        35
1866        1026.85        28
1867        1027.28        28
1868        1027.70        33
1869        1028.12        35
1870        1028.55        26
1871        1028.97        35
1872        1029.39        33
1873        1029.82        29
1874        1030.24        32
1875        1030.66        32
1876        1031.09        33
1877        1031.51        30
1878        1031.93        35
1879        1032.36        31
1880        1032.78        33
1881        1033.20        30
1882        1033.63        32
1883        1034.05        31
1884        1034.47        36
1885        1034.90        31
1886        1035.32        31
1887        1035.75        32
1888        1036.17        31
1889        1036.59        35
1890        1037.02        31
1891        1037.44        33
1892        1037.86        31
1893        1038.29        28
1894        1038.71        28
1895        1039.13        33
1896        1039.56        34
1897        1039.98        33
1898        1040.40        30
1899        1040.83        39
1900        1041.25        37
1901        1041.67        30
1902        1042.10        32
1903        1042.52        26
1904        1042.95        29
1905        1043.37        30
1906        1043.79        33
1907        1044.22        34
1908        1044.64        39
1909        1045.06        30
1910        1045.49        33
1911        1045.91        36
1912        1046.33        33
1913        1046.76        28
1914        1047.18        34
1915        1047.61        39
1916        1048.03        36
1917        1048.45        33
1918        1048.88        33
1919        1049.30        39
1920        1049.72        36
1921        1050.15        35
1922        1050.57        34
1923        1051.00        31
1924        1051.42        33
1925        1051.84        35
1926        1052.27        36
1927        1052.69        30
1928        1053.11        34
1929        1053.54        35
1930        1053.96        38
1931        1054.39        39
1932        1054.81        36
1933        1055.23        33
1934        1055.66        35
1935        1056.08        37
1936        1056.51        33
1937        1056.93        35
1938        1057.35        38
1939        1057.78        34
1940        1058.20        31
1941        1058.62        35
1942        1059.05        35
1943        1059.47        33
1944        1059.90        38
1945        1060.32        37
1946        1060.74        40
1947        1061.17        37
1948        1061.59        30
1949        1062.02        38
1950        1062.44        36
1951        1062.86        33
1952        1063.29        42
1953        1063.71        36
1954        1064.14        34
1955        1064.56        34
1956        1064.98        33
1957        1065.41        40
1958        1065.83        40
1959        1066.26        35
1960        1066.68        35
1961        1067.10        42
1962        1067.53        40
1963        1067.95        43
1964        1068.37        46
1965        1068.80        38
1966        1069.22        39
1967        1069.65        43
1968        1070.07        38
1969        1070.50        40
1970        1070.92        43
1971        1071.34        33
1972        1071.77        39
1973        1072.19        36
1974        1072.62        43
1975        1073.04        36
1976        1073.46        38
1977        1073.89        34
1978        1074.31        39
1979        1074.74        43
1980        1075.16        35
1981        1075.58        34
1982        1076.01        33
1983        1076.43        34
1984        1076.86        36
1985        1077.28        38
1986        1077.70        38
1987        1078.13        31
1988        1078.55        36
1989        1078.98        38
1990        1079.40        43
1991        1079.83        42
1992        1080.25        42
1993        1080.67        39
1994        1081.10        35
1995        1081.52        32
1996        1081.95        31
1997        1082.37        33
1998        1082.79        34
1999        1083.22        33
2000        1083.64        34
2001        1084.07        35
2002        1084.49        45
2003        1084.92        39
2004        1085.34        33
2005        1085.76        39
2006        1086.19        28
2007        1086.61        40
2008        1087.04        37
2009        1087.46        37
2010        1087.88        35
2011        1088.31        36
2012        1088.73        36
2013        1089.16        40
2014        1089.58        39
2015        1090.01        30
2016        1090.43        36
2017        1090.85        41
2018        1091.28        37
2019        1091.70        31
2020        1092.13        39
2021        1092.55        31
2022        1092.98        35
2023        1093.40        34
2024        1093.82        32
2025        1094.25        34
2026        1094.67        36
2027        1095.10        26
2028        1095.52        28
2029        1095.95        30
2030        1096.37        32
2031        1096.79        36
2032        1097.22        48
2033        1097.64        36
2034        1098.07        35
2035        1098.49        35
2036        1098.92        37
2037        1099.34        32
2038        1099.76        31
2039        1100.19        30
2040        1100.61        28
2041        1101.04        34
2042        1101.46        23
2043        1101.89        30
2044        1102.31        25
2045        1102.74        28
2046        1103.16        29
2047        1103.58        34
2048        1104.01        31


